CueType1,rows,CueType2,Picture,LeftText,NeutralText,EmoType,RightText,practiceLoop.thisRepN,practiceLoop.thisTrialN,practiceLoop.thisN,practiceLoop.thisIndex,trials.thisRepN,trials.thisTrialN,trials.thisN,trials.thisIndex,trials_2.thisRepN,trials_2.thisTrialN,trials_2.thisN,trials_2.thisIndex,mainTrials.thisRepN,mainTrials.thisTrialN,mainTrials.thisN,mainTrials.thisIndex,Instructions.started,Instructions.stopped,space.keys,space.rt,space.started,space.stopped,Iti.started,Iti.stopped,cue.started,cue.stopped,ISI.started,ISI.stopped,Image.started,Image.stopped,ratingQ.started,ratingQ.stopped,text_2.started,text_2.stopped,text_4.started,text_4.stopped,rating_2.response,rating_2.rt,rating_2.started,rating_2.stopped,text.started,text.stopped,key_resp.keys,key_resp.rt,key_resp.started,key_resp.stopped,participant,session,date,expName,psychopyVersion,frameRate,
,,,,,,,,,,,,,,,,,,,,,,,,13.239387799985707,None,space,6.103009699843824,13.239387799985707,None,,,,,,,,,,,,,,,,,,,,,,,,,1,001,2020_Feb_06_0915,EmotRegPavlovia,3.2.4,59.83484384632835,
REGULATE,003:0021,REACT,musician.jpg,None,Neutral,Neutral,Negative,0,0,0,0,0,0,0,0,,,,,,,,,,,,,,,37.48315489990637,None,21.40557250007987,24.405794099904597,24.405794099904597,None,26.421897999942303,None,34.418301899917424,None,34.418301899917424,None,34.418301899917424,None,2,3.047,0.008989570196717978,None,,,,,,,1,001,2020_Feb_06_0915,EmotRegPavlovia,3.2.4,59.83484384632835,
REGULATE,003:0021,REACT,angry1.jpg,None,Neutral,Negative,Negative,0,0,0,0,0,1,1,1,,,,,,,,,,,,,,,50.54428859986365,None,,,,,39.496429699938744,None,47.50811839988455,None,47.50811839988455,None,47.50811839988455,None,3,3.015,0.010617089923471212,None,,,,,,,1,001,2020_Feb_06_0915,EmotRegPavlovia,3.2.4,59.83484384632835,
REGULATE,003:0021,REACT,biking.jpg,None,Neutral,Neutral,Negative,0,0,0,0,0,2,2,2,,,,,,,,,,,,,,,64.45650459988974,None,,,,,52.557673800038174,None,60.568946700077504,None,60.568946700077504,None,60.568946700077504,None,1,3.866,0.011013889918103814,None,,,,,,,1,001,2020_Feb_06_0915,EmotRegPavlovia,3.2.4,59.83484384632835,
REGULATE,003:0021,REACT,,,,,,0,0,0,0,,,,,,,,,,,,,,,,,,,,,,,,,,,,,,,,,,,,,,,,,,,1,001,2020_Feb_06_0915,EmotRegPavlovia,3.2.4,59.83484384632835,
,,,,,,,,,,,,,,,,,,,,,,,,,,,,,,,,,,,,,,,,,,,,,,,,66.45703669986688,None,space,1.74980410002172,66.45703669986688,None,1,001,2020_Feb_06_0915,EmotRegPavlovia,3.2.4,59.83484384632835,
REGULATE,0075:93,REACT,depressed3.jpg,None,Neutral,Negative,Negative,,,,,,,,,0,0,0,4,0,0,0,1,,,,,,,86.09016679995693,None,70.22957329987548,73.22959219990298,73.21298739989288,None,75.28244420001283,None,83.23754170001484,None,83.23754170001484,None,83.23754170001484,None,4,2.833,0.012161590158939362,None,,,,,,,1,001,2020_Feb_06_0915,EmotRegPavlovia,3.2.4,59.83484384632835,
REGULATE,0075:93,REACT,sleepy2.jpg,None,Neutral,Neutral,Negative,,,,,,,,,0,0,0,4,0,1,1,16,,,,,,,98.96891999989748,None,,,,,88.10151940002106,None,96.11671369988471,None,96.11671369988471,None,96.11671369988471,None,1,2.832,0.010315789841115475,None,,,,,,,1,001,2020_Feb_06_0915,EmotRegPavlovia,3.2.4,59.83484384632835,
REGULATE,0075:93,REACT,sad2.jpg,None,Neutral,Negative,Negative,,,,,,,,,0,0,0,4,0,2,2,9,,,,,,,112.97908059996553,None,,,,,100.97749459999613,None,108.9923832998611,None,108.9923832998611,None,108.9923832998611,None,1,3.967,0.010142890037968755,None,,,,,,,1,001,2020_Feb_06_0915,EmotRegPavlovia,3.2.4,59.83484384632835,
REGULATE,0075:93,REACT,war3.jpg,None,Neutral,Negative,Negative,,,,,,,,,0,0,0,4,0,3,3,5,,,,,,,133.22884880006313,None,,,,,114.99574090004899,None,123.02139859995805,127.99127530003898,123.02139859995805,128.02517060004175,123.02139859995805,128.02517060004175,None,None,0.009497590130195022,None,,,,,,,1,001,2020_Feb_06_0915,EmotRegPavlovia,3.2.4,59.83484384632835,
REGULATE,0075:93,REACT,sadpose1.jpg,None,Neutral,Negative,Negative,,,,,,,,,0,0,0,4,0,4,4,8,,,,,,,148.24135609995574,None,,,,,135.23688909993507,None,143.23744999989867,148.22515240008943,143.23744999989867,None,143.23744999989867,None,None,None,0.012276189867407084,None,,,,,,,1,001,2020_Feb_06_0915,EmotRegPavlovia,3.2.4,59.83484384632835,
REGULATE,0075:93,REACT,sad3.jpg,None,Neutral,Negative,Negative,,,,,,,,,0,0,0,4,0,5,5,2,,,,,,,162.37014600005932,None,,,,,150.29711809987202,None,158.2357781000901,None,158.2357781000901,None,158.2357781000901,None,2,4.115,0.012116489931941032,None,,,,,,,1,001,2020_Feb_06_0915,EmotRegPavlovia,3.2.4,59.83484384632835,
REGULATE,0075:93,REACT,doctor2.jpg,None,Neutral,Negative,Negative,,,,,,,,,0,0,0,4,0,6,6,3,,,,,,,178.23328659986146,None,,,,,164.3780805999413,None,172.37994630006142,177.36606090003625,172.37994630006142,177.38263619993813,172.37994630006142,177.38263619993813,None,None,0.009894490009173751,None,,,,,,,1,001,2020_Feb_06_0915,EmotRegPavlovia,3.2.4,59.83484384632835,
REGULATE,0075:93,REACT,solder.jpg,None,Neutral,Negative,Negative,,,,,,,,,0,0,0,4,0,7,7,6,,,,,,,193.22867149999365,None,,,,,180.24263289989904,None,188.23098009987734,193.21254449989647,188.23098009987734,None,188.23098009987734,None,None,None,0.015501389978453517,None,,,,,,,1,001,2020_Feb_06_0915,EmotRegPavlovia,3.2.4,59.83484384632835,
REGULATE,0075:93,REACT,war6.jpg,None,Neutral,Negative,Negative,,,,,,,,,0,0,0,4,0,8,8,4,,,,,,,208.24157930002548,None,,,,,195.2369905000087,None,203.23737900005654,208.2084103000816,203.23737900005654,None,203.23737900005654,None,None,None,0.015212589874863625,None,,,,,,,1,001,2020_Feb_06_0915,EmotRegPavlovia,3.2.4,59.83484384632835,
REGULATE,0075:93,REACT,yoga2.jpg,None,Neutral,Neutral,Negative,,,,,,,,,0,0,0,4,0,9,9,17,,,,,,,223.23996199993417,None,,,,,210.25097699998878,None,218.2339293998666,223.20743179996498,218.2339293998666,None,218.2339293998666,None,None,None,0.01565119018778205,None,,,,,,,1,001,2020_Feb_06_0915,EmotRegPavlovia,3.2.4,59.83484384632835,
REGULATE,0075:93,REACT,school2.jpg,None,Neutral,Neutral,Negative,,,,,,,,,0,0,0,4,0,10,10,0,,,,,,,238.23280830006115,None,,,,,225.24520069989376,None,233.24524950003251,238.2159219000023,233.24524950003251,None,233.24524950003251,None,None,None,0.015758290188387036,None,,,,,,,1,001,2020_Feb_06_0915,EmotRegPavlovia,3.2.4,59.83484384632835,
REGULATE,0075:93,REACT,swimming.jpg,None,Neutral,Neutral,Negative,,,,,,,,,0,0,0,4,0,11,11,15,,,,,,,253.23345559998415,None,,,,,240.24168580002151,None,248.24115330004133,253.2168807000853,248.24115330004133,None,248.24115330004133,None,None,None,0.015747990226373076,None,,,,,,,1,001,2020_Feb_06_0915,EmotRegPavlovia,3.2.4,59.83484384632835,
REGULATE,0075:93,REACT,neonazi1.jpg,None,Neutral,Negative,Negative,,,,,,,,,0,0,0,4,0,12,12,11,,,,,,,268.24188049999066,None,,,,,255.25572500005364,None,263.23771269991994,268.22582109994255,263.23771269991994,None,263.23771269991994,None,None,None,0.015539990039542317,None,,,,,,,1,001,2020_Feb_06_0915,EmotRegPavlovia,3.2.4,59.83484384632835,
REGULATE,0075:93,REACT,police2.jpg,None,Neutral,Negative,Negative,,,,,,,,,0,0,0,4,0,13,13,10,,,,,,,283.23673729994334,None,,,,,270.2405179000925,None,278.2506232999731,283.21998480008915,278.2506232999731,None,278.2506232999731,None,None,None,0.01525989011861384,None,,,,,,,1,001,2020_Feb_06_0915,EmotRegPavlovia,3.2.4,59.83484384632835,
REGULATE,0075:93,REACT,sad5.jpg,None,Neutral,Negative,Negative,,,,,,,,,0,0,0,4,0,14,14,12,,,,,,,298.2336146000307,None,,,,,285.2594977999106,None,293.2456282998901,298.21644590003416,293.2456282998901,None,293.2456282998901,None,None,None,0.015683989971876144,None,,,,,,,1,001,2020_Feb_06_0915,EmotRegPavlovia,3.2.4,59.83484384632835,
REGULATE,0075:93,REACT,skydiving.jpg,None,Neutral,Neutral,Negative,,,,,,,,,0,0,0,4,0,15,15,14,,,,,,,313.2303247998934,None,,,,,300.250549999997,None,308.24362459988333,313.21403170004487,308.24362459988333,None,308.24362459988333,None,None,None,0.015629490138962865,None,,,,,,,1,001,2020_Feb_06_0915,EmotRegPavlovia,3.2.4,59.83484384632835,
REGULATE,0075:93,REACT,skier.jpg,None,Neutral,Neutral,Negative,,,,,,,,,0,0,0,4,0,16,16,13,,,,,,,328.2404489000328,None,,,,,315.24770649988204,None,323.2366692000069,328.20703239995055,323.2366692000069,None,323.2366692000069,None,None,None,0.015363289741799235,None,,,,,,,1,001,2020_Feb_06_0915,EmotRegPavlovia,3.2.4,59.83484384632835,
REGULATE,0075:93,REACT,scary.jpg,None,Neutral,Negative,Negative,,,,,,,,,0,0,0,4,0,17,17,7,,,,,,,343.23729509999976,None,,,,,330.293928100029,None,338.23569800006226,343.2046320999507,338.23569800006226,None,338.23569800006226,None,None,None,0.014884390169754624,None,,,,,,,1,001,2020_Feb_06_0915,EmotRegPavlovia,3.2.4,59.83484384632835,
REGULATE,0075:93,REACT,,,,,,,,,,,,,,0,0,0,4,,,,,,,,,,,,,,,,,,,,,,,,,,,,,,,,,,,1,001,2020_Feb_06_0915,EmotRegPavlovia,3.2.4,59.83484384632835,
REGULATE,0057:75,REACT,sleepy.jpg,None,Neutral,Neutral,Negative,,,,,,,,,0,1,1,3,0,0,0,12,,,,,,,363.2396221999079,None,345.2385921999812,348.24078530003317,348.22442610003054,None,350.24006500001997,None,358.2325722000096,363.2064871999901,358.2325722000096,None,358.2325722000096,None,None,None,0.015736989909783006,None,,,,,,,1,001,2020_Feb_06_0915,EmotRegPavlovia,3.2.4,59.83484384632835,
REGULATE,0057:75,REACT,soldier1.jpg,None,Neutral,Negative,Negative,,,,,,,,,0,1,1,3,0,1,1,15,,,,,,,378.23222919995897,None,,,,,365.24683899991214,None,373.24525739997625,378.2156154999975,373.24525739997625,None,373.24525739997625,None,None,None,0.015790189849212766,None,,,,,,,1,001,2020_Feb_06_0915,EmotRegPavlovia,3.2.4,59.83484384632835,
REGULATE,0057:75,REACT,sadface.jpg,None,Neutral,Negative,Negative,,,,,,,,,0,1,1,3,0,2,2,3,,,,,,,393.22848779987544,None,,,,,380.25002779997885,None,388.2427089000121,393.2122899000533,388.2427089000121,None,388.2427089000121,None,None,None,0.01563489018008113,None,,,,,,,1,001,2020_Feb_06_0915,EmotRegPavlovia,3.2.4,59.83484384632835,
REGULATE,0057:75,REACT,Shot3.jpg,None,Neutral,Negative,Negative,,,,,,,,,0,1,1,3,0,3,3,4,,,,,,,408.22996650007553,None,,,,,395.23848729999736,None,403.23705599992536,408.2165882999543,403.23705599992536,None,403.23705599992536,None,None,None,0.01557178981602192,None,,,,,,,1,001,2020_Feb_06_0915,EmotRegPavlovia,3.2.4,59.83484384632835,
REGULATE,0057:75,REACT,gazing5.jpg,None,Neutral,Neutral,Negative,,,,,,,,,0,1,1,3,0,4,4,8,,,,,,,423.2365842999425,None,,,,,410.2457892000675,None,418.23283339990303,423.2042827999685,418.23283339990303,None,418.23283339990303,None,None,None,0.01572179002687335,None,,,,,,,1,001,2020_Feb_06_0915,EmotRegPavlovia,3.2.4,59.83484384632835,
REGULATE,0057:75,REACT,depressed2.jpg,None,Neutral,Negative,Negative,,,,,,,,,0,1,1,3,0,5,5,17,,,,,,,438.23230169992894,None,,,,,425.28330129990354,None,433.24676040001214,438.2153557999991,433.24676040001214,None,433.24676040001214,None,None,None,0.015614989679306746,None,,,,,,,1,001,2020_Feb_06_0915,EmotRegPavlovia,3.2.4,59.83484384632835,
REGULATE,0057:75,REACT,guitar.jpg,None,Neutral,Neutral,Negative,,,,,,,,,0,1,1,3,0,6,6,9,,,,,,,453.24482579994947,None,,,,,440.2405465999618,None,448.240750500001,453.2109819999896,448.240750500001,None,448.240750500001,None,None,None,0.015774690080434084,None,,,,,,,1,001,2020_Feb_06_0915,EmotRegPavlovia,3.2.4,59.83484384632835,
REGULATE,0057:75,REACT,sad1.jpg,None,Neutral,Negative,Negative,,,,,,,,,0,1,1,3,0,7,7,2,,,,,,,466.1554819000885,None,,,,,455.2404591999948,None,463.2358428000007,None,463.2358428000007,None,463.2358428000007,None,5,2.904,0.015646690037101507,None,,,,,,,1,001,2020_Feb_06_0915,EmotRegPavlovia,3.2.4,59.83484384632835,
REGULATE,0057:75,REACT,soldier3.jpg,None,Neutral,Negative,Negative,,,,,,,,,0,1,1,3,0,8,8,5,,,,,,,483.2360378000885,None,,,,,468.1650398999918,None,476.1647030999884,481.1520714999642,476.1647030999884,481.16869849991053,476.1647030999884,481.16869849991053,None,None,0.010227189864963293,None,,,,,,,1,001,2020_Feb_06_0915,EmotRegPavlovia,3.2.4,59.83484384632835,
REGULATE,0057:75,REACT,frustratedpose.jpg,None,Neutral,Negative,Negative,,,,,,,,,0,1,1,3,0,9,9,0,,,,,,,498.23173899995163,None,,,,,485.2448970999103,None,493.24489780003205,498.2152221999131,493.24489780003205,None,493.24489780003205,None,None,None,0.01566688995808363,None,,,,,,,1,001,2020_Feb_06_0915,EmotRegPavlovia,3.2.4,59.83484384632835,
REGULATE,0057:75,REACT,War2.jpg,None,Neutral,Negative,Negative,,,,,,,,,0,1,1,3,0,10,10,6,,,,,,,511.2761597998906,None,,,,,500.24020519992337,None,508.2406484000385,None,508.2406484000385,None,508.2406484000385,None,4,3.018,0.015213390113785863,None,,,,,,,1,001,2020_Feb_06_0915,EmotRegPavlovia,3.2.4,59.83484384632835,
REGULATE,0057:75,REACT,scared2.jpg,None,Neutral,Negative,Negative,,,,,,,,,0,1,1,3,0,11,11,7,,,,,,,523.4695923000108,None,,,,,513.2857836999465,None,521.3024083999917,None,521.3024083999917,None,521.3024083999917,None,3,2.146,0.009537489851936698,None,,,,,,,1,001,2020_Feb_06_0915,EmotRegPavlovia,3.2.4,59.83484384632835,
REGULATE,0057:75,REACT,surgery.jpg,None,Neutral,Negative,Negative,,,,,,,,,0,1,1,3,0,12,12,13,,,,,,,536.9308060999028,None,,,,,525.4826988999266,None,533.4953079000115,None,533.4953079000115,None,533.4953079000115,None,3,3.416,0.010755989933386445,None,,,,,,,1,001,2020_Feb_06_0915,EmotRegPavlovia,3.2.4,59.83484384632835,
REGULATE,0057:75,REACT,school.jpg,None,Neutral,Neutral,Negative,,,,,,,,,0,1,1,3,0,13,13,11,,,,,,,552.1101426000241,None,,,,,538.9403973999433,None,546.939591200091,551.926562699955,546.939591200091,551.944261000026,546.939591200091,551.944261000026,2,5.149,0.010905290022492409,None,,,,,,,1,001,2020_Feb_06_0915,EmotRegPavlovia,3.2.4,59.83484384632835,
REGULATE,0057:75,REACT,raft.jpg,None,Neutral,Neutral,Negative,,,,,,,,,0,1,1,3,0,14,14,16,,,,,,,573.2445835000835,None,,,,,554.1241259998642,None,562.1343795999419,567.1059363998938,562.1343795999419,567.1392220999114,562.1343795999419,567.1392220999114,None,None,0.01048418995924294,None,,,,,,,1,001,2020_Feb_06_0915,EmotRegPavlovia,3.2.4,59.83484384632835,
REGULATE,0057:75,REACT,yoga1.jpg,None,Neutral,Neutral,Negative,,,,,,,,,0,1,1,3,0,15,15,14,,,,,,,586.4554415999446,None,,,,,575.2362168000545,None,583.2358991000801,None,583.2358991000801,None,583.2358991000801,None,5,3.2,0.012046089861541986,None,,,,,,,1,001,2020_Feb_06_0915,EmotRegPavlovia,3.2.4,59.83484384632835,
REGULATE,0057:75,REACT,scared1.jpg,None,Neutral,Negative,Negative,,,,,,,,,0,1,1,3,0,16,16,10,,,,,,,598.9658230999485,None,,,,,588.4642855999991,None,596.4642590000294,None,596.4642590000294,None,596.4642590000294,None,5,2.48,0.009753589751198888,None,,,,,,,1,001,2020_Feb_06_0915,EmotRegPavlovia,3.2.4,59.83484384632835,
REGULATE,0057:75,REACT,police.jpg,None,Neutral,Negative,Negative,,,,,,,,,0,1,1,3,0,17,17,1,,,,,,,612.9611382000148,None,,,,,600.975126999896,None,608.9907619000878,None,608.9907619000878,None,608.9907619000878,None,3,3.949,0.011128689628094435,None,,,,,,,1,001,2020_Feb_06_0915,EmotRegPavlovia,3.2.4,59.83484384632835,
REGULATE,0057:75,REACT,,,,,,,,,,,,,,0,1,1,3,,,,,,,,,,,,,,,,,,,,,,,,,,,,,,,,,,,1,001,2020_Feb_06_0915,EmotRegPavlovia,3.2.4,59.83484384632835,
REACT,0021:0039,REGULATE,War1.jpg,None,Neutral,Negative,Negative,,,,,,,,,0,2,2,1,0,0,0,16,,,,,,,638.2311867000535,None,614.9771255999804,617.9818174999673,617.9650489999913,None,619.9882487000432,None,627.9905069000088,632.9768968999851,627.9905069000088,632.993773000082,627.9905069000088,632.993773000082,None,None,0.010294390143826604,None,,,,,,,1,001,2020_Feb_06_0915,EmotRegPavlovia,3.2.4,59.83484384632835,
REACT,0021:0039,REGULATE,sad4.jpg,None,Neutral,Negative,Negative,,,,,,,,,0,2,2,1,0,1,1,13,,,,,,,650.3582794000395,None,,,,,640.2396949999966,None,648.2395520999562,None,648.2395520999562,None,648.2395520999562,None,1,2.103,0.015550389885902405,None,,,,,,,1,001,2020_Feb_06_0915,EmotRegPavlovia,3.2.4,59.83484384632835,
REACT,0021:0039,REGULATE,depressed.jpg,None,Neutral,Negative,Negative,,,,,,,,,0,2,2,1,0,2,2,4,,,,,,,662.452479599975,None,,,,,652.3623635000549,None,660.3665030999109,None,660.3665030999109,None,660.3665030999109,None,2,2.065,0.010661389911547303,None,,,,,,,1,001,2020_Feb_06_0915,EmotRegPavlovia,3.2.4,59.83484384632835,
REACT,0021:0039,REGULATE,bungee.jpg,None,Neutral,Neutral,Negative,,,,,,,,,0,2,2,1,0,3,3,2,,,,,,,674.9286559000611,None,,,,,664.4602910000831,None,672.4603601000272,None,672.4603601000272,None,672.4603601000272,None,4,2.447,0.009991389932110906,None,,,,,,,1,001,2020_Feb_06_0915,EmotRegPavlovia,3.2.4,59.83484384632835,
REACT,0021:0039,REGULATE,gazing.jpg,None,Neutral,Neutral,Negative,,,,,,,,,0,2,2,1,0,4,4,9,,,,,,,687.5558793998789,None,,,,,676.9346119000111,None,684.9374202000909,None,684.9374202000909,None,684.9374202000909,None,4,2.597,0.010717089986428618,None,,,,,,,1,001,2020_Feb_06_0915,EmotRegPavlovia,3.2.4,59.83484384632835,
REACT,0021:0039,REGULATE,bored.jpg,None,Neutral,Negative,Negative,,,,,,,,,0,2,2,1,0,5,5,1,,,,,,,699.8827486999799,None,,,,,689.5633447000291,None,697.5647553999443,None,697.5647553999443,None,697.5647553999443,None,4,2.297,0.01045618997886777,None,,,,,,,1,001,2020_Feb_06_0915,EmotRegPavlovia,3.2.4,59.83484384632835,
REACT,0021:0039,REGULATE,massage.jpg,None,Neutral,Neutral,Negative,,,,,,,,,0,2,2,1,0,6,6,10,,,,,,,713.2940003999975,None,,,,,701.8921213999856,None,709.8910952000879,None,709.8910952000879,None,709.8910952000879,None,2,3.381,0.010726589942350984,None,,,,,,,1,001,2020_Feb_06_0915,EmotRegPavlovia,3.2.4,59.83484384632835,
REACT,0021:0039,REGULATE,gun.jpg,None,Neutral,Negative,Negative,,,,,,,,,0,2,2,1,0,7,7,5,,,,,,,726.1549142999575,None,,,,,715.302943599876,None,723.3027194999158,None,723.3027194999158,None,723.3027194999158,None,2,2.831,0.009897890035063028,None,,,,,,,1,001,2020_Feb_06_0915,EmotRegPavlovia,3.2.4,59.83484384632835,
REACT,0021:0039,REGULATE,hangover.jpg,None,Neutral,Negative,Negative,,,,,,,,,0,2,2,1,0,8,8,12,,,,,,,757.1468279000837,None,,,,,728.1638277000748,None,736.1632528000046,741.1503222999163,736.1632528000046,741.1669574000407,736.1632528000046,741.1669574000407,4,20.962,0.010590990073978901,None,,,,,,,1,001,2020_Feb_06_0915,EmotRegPavlovia,3.2.4,59.83484384632835,
REACT,0021:0039,REGULATE,angry2.jpg,None,Neutral,Negative,Negative,,,,,,,,,0,2,2,1,0,9,9,0,,,,,,,773.2442594000604,None,,,,,759.1521651998628,None,767.1554169000592,772.1429212999064,767.1554169000592,772.1594094000757,767.1554169000592,772.1594094000757,None,None,0.009956090012565255,None,,,,,,,1,001,2020_Feb_06_0915,EmotRegPavlovia,3.2.4,59.83484384632835,
REACT,0021:0039,REGULATE,shooting.jpg,None,Neutral,Negative,Negative,,,,,,,,,0,2,2,1,0,10,10,15,,,,,,,788.2394157999661,None,,,,,775.2535953000188,None,783.2356010999065,788.2059476000722,783.2356010999065,None,783.2356010999065,None,None,None,0.015482790302485228,None,,,,,,,1,001,2020_Feb_06_0915,EmotRegPavlovia,3.2.4,59.83484384632835,
REACT,0021:0039,REGULATE,frustratedpose7.jpg,None,Neutral,Negative,Negative,,,,,,,,,0,2,2,1,0,11,11,8,,,,,,,801.0835694000125,None,,,,,790.2435934999958,None,798.2311475998722,None,798.2311475998722,None,798.2311475998722,None,2,2.836,0.015731289982795715,None,,,,,,,1,001,2020_Feb_06_0915,EmotRegPavlovia,3.2.4,59.83484384632835,
REACT,0021:0039,REGULATE,miserable.jpg,None,Neutral,Negative,Negative,,,,,,,,,0,2,2,1,0,12,12,11,,,,,,,813.6769741000608,None,,,,,803.0927933999337,None,811.0918985998724,None,811.0918985998724,None,811.0918985998724,None,2,2.564,0.010207190178334713,None,,,,,,,1,001,2020_Feb_06_0915,EmotRegPavlovia,3.2.4,59.83484384632835,
REACT,0021:0039,REGULATE,dancing.jpg,None,Neutral,Neutral,Negative,,,,,,,,,0,2,2,1,0,13,13,6,,,,,,,827.2553179999813,None,,,,,815.6819326998666,None,823.6855673999526,None,823.6855673999526,None,823.6855673999526,None,2,3.548,0.010342590045183897,None,,,,,,,1,001,2020_Feb_06_0915,EmotRegPavlovia,3.2.4,59.83484384632835,
REACT,0021:0039,REGULATE,scared.jpg,None,Neutral,Negative,Negative,,,,,,,,,0,2,2,1,0,14,14,14,,,,,,,839.4654695999343,None,,,,,829.2634071998764,None,837.2641366000753,None,837.2641366000753,None,837.2641366000753,None,2,2.18,0.00993819022551179,None,,,,,,,1,001,2020_Feb_06_0915,EmotRegPavlovia,3.2.4,59.83484384632835,
REACT,0021:0039,REGULATE,camping.jpg,None,Neutral,Neutral,Negative,,,,,,,,,0,2,2,1,0,15,15,3,,,,,,,851.8588147999253,None,,,,,841.4719871000852,None,849.4744820999913,None,849.4744820999913,None,849.4744820999913,None,1,2.365,0.01090079010464251,None,,,,,,,1,001,2020_Feb_06_0915,EmotRegPavlovia,3.2.4,59.83484384632835,
REACT,0021:0039,REGULATE,neutralface2.jpg,None,Neutral,Neutral,Negative,,,,,,,,,0,2,2,1,0,16,16,17,,,,,,,864.4534207000397,None,,,,,853.8670173999853,None,861.8670882999431,None,861.8670882999431,None,861.8670882999431,None,2,2.565,0.010990190086886287,None,,,,,,,1,001,2020_Feb_06_0915,EmotRegPavlovia,3.2.4,59.83484384632835,
REACT,0021:0039,REGULATE,doctor.jpg,None,Neutral,Negative,Negative,,,,,,,,,0,2,2,1,0,17,17,7,,,,,,,878.0144092999399,None,,,,,866.4606278999709,None,874.4620155000594,None,874.4620155000594,None,874.4620155000594,None,3,3.532,0.01001609000377357,None,,,,,,,1,001,2020_Feb_06_0915,EmotRegPavlovia,3.2.4,59.83484384632835,
REACT,0021:0039,REGULATE,,,,,,,,,,,,,,0,2,2,1,,,,,,,,,,,,,,,,,,,,,,,,,,,,,,,,,,,1,001,2020_Feb_06_0915,EmotRegPavlovia,3.2.4,59.83484384632835,
REACT,0039:0057,REGULATE,toast.jpg,Neutral,Neutral,Positive,Positive,,,,,,,,,0,3,3,2,0,0,0,0,,,,,,,898.864725299878,None,880.0168284000829,883.0178731998894,883.0012984999921,None,885.0166068999097,None,893.0301222000271,898.030426299898,893.0301222000271,898.030426299898,893.0301222000271,898.030426299898,2,5.811,0.005212289979681373,None,,,,,,,1,001,2020_Feb_06_0915,EmotRegPavlovia,3.2.4,59.83484384632835,
REACT,0039:0057,REGULATE,cheerleader2.jpg,Neutral,Neutral,Positive,Positive,,,,,,,,,0,3,3,2,0,1,1,4,,,,,,,928.2389060000423,None,,,,,900.871565700043,None,908.8730935000349,913.8602972000372,908.8730935000349,913.8767115999945,908.8730935000349,913.8767115999945,None,None,0.010968090035021305,None,,,,,,,1,001,2020_Feb_06_0915,EmotRegPavlovia,3.2.4,59.83484384632835,
REACT,0039:0057,REGULATE,baby4.jpg,Neutral,Neutral,Positive,Positive,,,,,,,,,0,3,3,2,0,2,2,12,,,,,,,943.2348376999144,None,,,,,930.244788599899,None,938.2307128999382,943.2012569999788,938.2307128999382,None,938.2307128999382,None,None,None,0.015738090267404914,None,,,,,,,1,001,2020_Feb_06_0915,EmotRegPavlovia,3.2.4,59.83484384632835,
REACT,0039:0057,REGULATE,cold.jpg,Neutral,Neutral,Neutral,Positive,,,,,,,,,0,3,3,2,0,3,3,3,,,,,,,958.2302087000571,None,,,,,945.2397851999849,None,953.2433915000875,958.2139902000781,953.2433915000875,None,953.2433915000875,None,None,None,0.015760689973831177,None,,,,,,,1,001,2020_Feb_06_0915,EmotRegPavlovia,3.2.4,59.83484384632835,
REACT,0039:0057,REGULATE,eating2.jpg,Neutral,Neutral,Positive,Positive,,,,,,,,,0,3,3,2,0,4,4,5,,,,,,,970.4403504999354,None,,,,,960.2378215999343,None,968.2387765999883,None,968.2387765999883,None,968.2387765999883,None,3,2.187,0.01537798997014761,None,,,,,,,1,001,2020_Feb_06_0915,EmotRegPavlovia,3.2.4,59.83484384632835,
REACT,0039:0057,REGULATE,couple3.jpg,Neutral,Neutral,Positive,Positive,,,,,,,,,0,3,3,2,0,5,5,8,,,,,,,982.4511210999917,None,,,,,972.4475904998835,None,980.449316999875,None,980.449316999875,None,980.449316999875,None,5,1.981,0.011379790026694536,None,,,,,,,1,001,2020_Feb_06_0915,EmotRegPavlovia,3.2.4,59.83484384632835,
REACT,0039:0057,REGULATE,exercise.jpg,Neutral,Neutral,Positive,Positive,,,,,,,,,0,3,3,2,0,6,6,10,,,,,,,995.661462899996,None,,,,,984.45886350004,None,992.459331399994,None,992.459331399994,None,992.459331399994,None,4,3.181,0.010256289970129728,None,,,,,,,1,001,2020_Feb_06_0915,EmotRegPavlovia,3.2.4,59.83484384632835,
REACT,0039:0057,REGULATE,Parade1.jpg,Neutral,Neutral,Positive,Positive,,,,,,,,,0,3,3,2,0,7,7,11,,,,,,,1007.3212667999323,None,,,,,997.6713113000151,None,1005.6719177998602,None,1005.6719177998602,None,1005.6719177998602,None,5,1.629,0.010232089785858989,None,,,,,,,1,001,2020_Feb_06_0915,EmotRegPavlovia,3.2.4,59.83484384632835,
REACT,0039:0057,REGULATE,rockclimb.jpg,Neutral,Neutral,Neutral,Positive,,,,,,,,,0,3,3,2,0,8,8,17,,,,,,,1021.099359799875,None,,,,,1009.3312568999827,None,1017.3461339999922,None,1017.3461339999922,None,1017.3461339999922,None,5,3.732,0.010481090052053332,None,,,,,,,1,001,2020_Feb_06_0915,EmotRegPavlovia,3.2.4,59.83484384632835,
REACT,0039:0057,REGULATE,baby1.jpg,Neutral,Neutral,Positive,Positive,,,,,,,,,0,3,3,2,0,9,9,2,,,,,,,1033.3931175000034,None,,,,,1023.1050197998993,None,1031.1075198000763,None,1031.1075198000763,None,1031.1075198000763,None,5,2.265,0.010953290155157447,None,,,,,,,1,001,2020_Feb_06_0915,EmotRegPavlovia,3.2.4,59.83484384632835,
REACT,0039:0057,REGULATE,mother4.jpg,Neutral,Neutral,Positive,Positive,,,,,,,,,0,3,3,2,0,10,10,6,,,,,,,1046.17007620004,None,,,,,1035.4016376000363,None,1043.4012219000142,None,1043.4012219000142,None,1043.4012219000142,None,5,2.748,0.010479189921170473,None,,,,,,,1,001,2020_Feb_06_0915,EmotRegPavlovia,3.2.4,59.83484384632835,
REACT,0039:0057,REGULATE,dancing1.jpg,Neutral,Neutral,Positive,Positive,,,,,,,,,0,3,3,2,0,11,11,1,,,,,,,1058.8142309999093,None,,,,,1048.1769167000894,None,1056.1785518999677,None,1056.1785518999677,None,1056.1785518999677,None,5,2.615,0.010787390172481537,None,,,,,,,1,001,2020_Feb_06_0915,EmotRegPavlovia,3.2.4,59.83484384632835,
REACT,0039:0057,REGULATE,mother3.jpg,Neutral,Neutral,Positive,Positive,,,,,,,,,0,3,3,2,0,12,12,13,,,,,,,1070.7403881999198,None,,,,,1060.8226993000135,None,1068.822652099887,None,1068.822652099887,None,1068.822652099887,None,4,1.898,0.011323489947244525,None,,,,,,,1,001,2020_Feb_06_0915,EmotRegPavlovia,3.2.4,59.83484384632835,
REACT,0039:0057,REGULATE,gazing4.jpg,Neutral,Neutral,Neutral,Positive,,,,,,,,,0,3,3,2,0,13,13,16,,,,,,,1108.2381076000165,None,,,,,1072.7477553999051,None,1080.7490540998988,1085.736419199966,1080.7490540998988,1085.753356500063,1080.7490540998988,1085.753356500063,None,None,0.01073228963650763,None,,,,,,,1,001,2020_Feb_06_0915,EmotRegPavlovia,3.2.4,59.83484384632835,
REACT,0039:0057,REGULATE,gazing2.jpg,Neutral,Neutral,Neutral,Positive,,,,,,,,,0,3,3,2,0,14,14,14,,,,,,,1121.41554680001,None,,,,,1110.241705500055,None,1118.2300279999617,None,1118.2300279999617,None,1118.2300279999617,None,5,3.169,0.01574979000724852,None,,,,,,,1,001,2020_Feb_06_0915,EmotRegPavlovia,3.2.4,59.83484384632835,
REACT,0039:0057,REGULATE,picnic.jpg,Neutral,Neutral,Neutral,Positive,,,,,,,,,0,3,3,2,0,15,15,15,,,,,,,1134.8268691999838,None,,,,,1123.425116499886,None,1131.4410268000793,None,1131.4410268000793,None,1131.4410268000793,None,5,3.365,0.010265589924529195,None,,,,,,,1,001,2020_Feb_06_0915,EmotRegPavlovia,3.2.4,59.83484384632835,
REACT,0039:0057,REGULATE,doctor3.jpg,Neutral,Neutral,Neutral,Positive,,,,,,,,,0,3,3,2,0,16,16,7,,,,,,,1150.1396447999869,None,,,,,1136.8326121000573,None,1144.8353800999466,1149.8229697998613,1144.8353800999466,1149.8395308000036,1144.8353800999466,1149.8395308000036,5,5.283,0.00990608986467123,None,,,,,,,1,001,2020_Feb_06_0915,EmotRegPavlovia,3.2.4,59.83484384632835,
REACT,0039:0057,REGULATE,excited2.jpg,Neutral,Neutral,Positive,Positive,,,,,,,,,0,3,3,2,0,17,17,9,,,,,,,1164.2849965998903,None,,,,,1152.1510479999706,None,1160.165205999976,None,1160.165205999976,None,1160.165205999976,None,5,4.098,0.010264589916914701,None,,,,,,,1,001,2020_Feb_06_0915,EmotRegPavlovia,3.2.4,59.83484384632835,
REACT,0039:0057,REGULATE,,,,,,,,,,,,,,0,3,3,2,,,,,,,,,,,,,,,,,,,,,,,,,,,,,,,,,,,1,001,2020_Feb_06_0915,EmotRegPavlovia,3.2.4,59.83484384632835,
REGULATE,003:0021,REACT,dessert.jpg,Neutral,Neutral,Positive,Positive,,,,,,,,,0,4,4,0,0,0,0,6,,,,,,,1180.5650291000493,None,1166.2863326999359,1169.288965600077,1169.272694800049,None,1171.2881334000267,None,1179.2973193998914,None,1179.2973193998914,None,1179.2973193998914,None,5,1.247,0.01088879001326859,None,,,,,,,1,001,2020_Feb_06_0915,EmotRegPavlovia,3.2.4,59.83484384632835,
REGULATE,003:0021,REACT,couple2.jpg,Neutral,Neutral,Positive,Positive,,,,,,,,,0,4,4,0,0,1,1,11,,,,,,,1193.2087407000363,None,,,,,1182.5735492999665,None,1190.5739927999675,None,1190.5739927999675,None,1190.5739927999675,None,4,2.615,0.010667890077456832,None,,,,,,,1,001,2020_Feb_06_0915,EmotRegPavlovia,3.2.4,59.83484384632835,
REGULATE,003:0021,REACT,mother.jpg,Neutral,Neutral,Positive,Positive,,,,,,,,,0,4,4,0,0,2,2,12,,,,,,,1205.4855047999881,None,,,,,1195.2181983999908,None,1203.2341891999822,None,1203.2341891999822,None,1203.2341891999822,None,5,2.232,0.010231290012598038,None,,,,,,,1,001,2020_Feb_06_0915,EmotRegPavlovia,3.2.4,59.83484384632835,
REGULATE,003:0021,REACT,rugby.jpg,Neutral,Neutral,Neutral,Positive,,,,,,,,,0,4,4,0,0,3,3,16,,,,,,,1218.3136986999307,None,,,,,1207.4947981000878,None,1215.5106232999824,None,1215.5106232999824,None,1215.5106232999824,None,5,2.782,0.011233790079131722,None,,,,,,,1,001,2020_Feb_06_0915,EmotRegPavlovia,3.2.4,59.83484384632835,
REGULATE,003:0021,REACT,excited1.jpg,Neutral,Neutral,Positive,Positive,,,,,,,,,0,4,4,0,0,4,4,7,,,,,,,1230.005739599932,None,,,,,1220.320551800076,None,1228.321317099966,None,1228.321317099966,None,1228.321317099966,None,4,1.663,0.010160889709368348,None,,,,,,,1,001,2020_Feb_06_0915,EmotRegPavlovia,3.2.4,59.83484384632835,
REGULATE,003:0021,REACT,baby.jpg,Neutral,Neutral,Neutral,Positive,,,,,,,,,0,4,4,0,0,5,5,0,,,,,,,1242.9834034000523,None,,,,,1232.011663199868,None,1240.0146703000646,None,1240.0146703000646,None,1240.0146703000646,None,5,2.948,0.010161489713937044,None,,,,,,,1,001,2020_Feb_06_0915,EmotRegPavlovia,3.2.4,59.83484384632835,
REGULATE,003:0021,REACT,excited4.jpg,Neutral,Neutral,Positive,Positive,,,,,,,,,0,4,4,0,0,6,6,3,,,,,,,1255.6774953000713,None,,,,,1244.9910029000603,None,1252.9930884998757,None,1252.9930884998757,None,1252.9930884998757,None,4,2.664,0.010006289929151535,None,,,,,,,1,001,2020_Feb_06_0915,EmotRegPavlovia,3.2.4,59.83484384632835,
REGULATE,003:0021,REACT,picnic2.jpg,Neutral,Neutral,Positive,Positive,,,,,,,,,0,4,4,0,0,7,7,13,,,,,,,1266.986589099979,None,,,,,1257.6884121000767,None,1265.702540300088,None,1265.702540300088,None,1265.702540300088,None,4,1.264,0.01008858997374773,None,,,,,,,1,001,2020_Feb_06_0915,EmotRegPavlovia,3.2.4,59.83484384632835,
REGULATE,003:0021,REACT,collab.jpg,Neutral,Neutral,Neutral,Positive,,,,,,,,,0,4,4,0,0,8,8,15,,,,,,,1308.2374583999626,None,,,,,1268.9923435000237,None,1276.9953447999433,1281.9825752999168,1276.9953447999433,1281.9990860999096,1276.9953447999433,1281.9990860999096,None,None,0.01032688980922103,None,,,,,,,1,001,2020_Feb_06_0915,EmotRegPavlovia,3.2.4,59.83484384632835,
REGULATE,003:0021,REACT,dancing2.jpg,Neutral,Neutral,Positive,Positive,,,,,,,,,0,4,4,0,0,9,9,14,,,,,,,1320.447612500051,None,,,,,1310.244315299904,None,1318.2293437998742,None,1318.2293437998742,None,1318.2293437998742,None,4,2.202,0.015441589755937457,None,,,,,,,1,001,2020_Feb_06_0915,EmotRegPavlovia,3.2.4,59.83484384632835,
REGULATE,003:0021,REACT,school4.jpg,Neutral,Neutral,Neutral,Positive,,,,,,,,,0,4,4,0,0,10,10,17,,,,,,,1338.2291099999566,None,,,,,1322.4583266999107,None,1330.4728902999777,1335.4601892000064,1330.4728902999777,1335.4766295000445,1330.4728902999777,1335.4766295000445,None,None,0.010109689785167575,None,,,,,,,1,001,2020_Feb_06_0915,EmotRegPavlovia,3.2.4,59.83484384632835,
REGULATE,003:0021,REACT,siblings.jpg,Neutral,Neutral,Positive,Positive,,,,,,,,,0,4,4,0,0,11,11,2,,,,,,,1352.6574194999412,None,,,,,1340.2380444998853,None,1348.237302799942,None,1348.237302799942,None,1348.237302799942,None,5,4.404,0.015222789952531457,None,,,,,,,1,001,2020_Feb_06_0915,EmotRegPavlovia,3.2.4,59.83484384632835,
REGULATE,003:0021,REACT,face.jpg,Neutral,Neutral,Neutral,Positive,,,,,,,,,0,4,4,0,0,12,12,9,,,,,,,1367.0197153000627,None,,,,,1354.666031199973,None,1362.6660885000601,None,1362.6660885000601,None,1362.6660885000601,None,4,4.332,0.010838889982551336,None,,,,,,,1,001,2020_Feb_06_0915,EmotRegPavlovia,3.2.4,59.83484384632835,
REGULATE,003:0021,REACT,school5.jpg,Neutral,Neutral,Positive,Positive,,,,,,,,,0,4,4,0,0,13,13,1,,,,,,,1383.233579599997,None,,,,,1369.0295190000907,None,1377.044904399896,1382.0322042999323,1377.044904399896,1382.048735999968,1377.044904399896,1382.048735999968,None,None,0.01032068976201117,None,,,,,,,1,001,2020_Feb_06_0915,EmotRegPavlovia,3.2.4,59.83484384632835,
REGULATE,003:0021,REACT,band2.jpg,Neutral,Neutral,Neutral,Positive,,,,,,,,,0,4,4,0,0,14,14,10,,,,,,,1396.0271067998838,None,,,,,1385.240340899909,None,1393.2415765000042,None,1393.2415765000042,None,1393.2415765000042,None,4,2.77,0.01571258995682001,None,,,,,,,1,001,2020_Feb_06_0915,EmotRegPavlovia,3.2.4,59.83484384632835,
REGULATE,003:0021,REACT,happy2.jpg,Neutral,Neutral,Positive,Positive,,,,,,,,,0,4,4,0,0,15,15,8,,,,,,,1412.6743630000856,None,,,,,1398.0360097000375,None,1406.0354271000251,1411.023376399884,1406.0354271000251,1411.039485400077,1406.0354271000251,1411.039485400077,5,6.617,0.010369990020990372,None,,,,,,,1,001,2020_Feb_06_0915,EmotRegPavlovia,3.2.4,59.83484384632835,
REGULATE,003:0021,REACT,wedding.jpg,Neutral,Neutral,Positive,Positive,,,,,,,,,0,4,4,0,0,16,16,4,,,,,,,1428.2369965000544,None,,,,,1414.6833407999948,None,1422.6994946999475,1427.686715299962,1422.6994946999475,1427.7041110999417,1422.6994946999475,1427.7041110999417,None,None,0.010986689943820238,None,,,,,,,1,001,2020_Feb_06_0915,EmotRegPavlovia,3.2.4,59.83484384632835,
REGULATE,003:0021,REACT,children.jpg,Neutral,Neutral,Positive,Positive,,,,,,,,,0,4,4,0,0,17,17,5,,,,,,,1441.9653477999382,None,,,,,1430.2436937999446,None,1438.2455355999991,None,1438.2455355999991,None,1438.2455355999991,None,5,3.703,0.015530389733612537,None,,,,,,,1,001,2020_Feb_06_0915,EmotRegPavlovia,3.2.4,59.83484384632835,
REGULATE,003:0021,REACT,,,,,,,,,,,,,,0,4,4,0,,,,,,,,,,,,,,,,,,,,,,,,,,,,,,,,,,,1,001,2020_Feb_06_0915,EmotRegPavlovia,3.2.4,59.83484384632835,
