Instructions,rows,CueInstructions1,CueInstructions2,PracticeDilemmas,PracticeLeftText,PracticeRightText,Reminder,ChoseNothing,ChosePlan,GroupNumber,GroupProb,Noun,sureGroupText,MainPicture,rows2,IntroLoop.thisRepN,IntroLoop.thisTrialN,IntroLoop.thisN,IntroLoop.thisIndex,PracticeLoop.thisRepN,PracticeLoop.thisTrialN,PracticeLoop.thisN,PracticeLoop.thisIndex,PracticeQs.thisRepN,PracticeQs.thisTrialN,PracticeQs.thisN,PracticeQs.thisIndex,practiceAs.thisRepN,practiceAs.thisTrialN,practiceAs.thisN,practiceAs.thisIndex,MainLoop.thisRepN,MainLoop.thisTrialN,MainLoop.thisN,MainLoop.thisIndex,MainQs.thisRepN,MainQs.thisTrialN,MainQs.thisN,MainQs.thisIndex,trials_2.thisRepN,trials_2.thisTrialN,trials_2.thisN,trials_2.thisIndex,InstText.started,InstText.stopped,space.keys,space.rt,space.started,space.stopped,isi.started,isi.stopped,image.started,image.stopped,practiceQs.started,practiceQs.stopped,space1.keys,space1.rt,space1.started,space1.stopped,key_resp.keys,key_resp.rt,key_resp.started,key_resp.stopped,conBlank.started,conBlank.stopped,leftText.started,leftText.stopped,rightText.started,rightText.stopped,Yes.started,Yes.stopped,No.started,No.stopped,RemText.started,RemText.stopped,sureGroup.started,sureGroup.stopped,FeedbackVar.started,FeedbackVar.stopped,isi_2.started,isi_2.stopped,instructions2.started,instructions2.stopped,key_resp_4.keys,key_resp_4.rt,key_resp_4.started,key_resp_4.stopped,text.started,text.stopped,key_resp_2.keys,key_resp_2.rt,key_resp_2.started,key_resp_2.stopped,image_2.started,image_2.stopped,key_resp_3.keys,key_resp_3.rt,key_resp_3.started,key_resp_3.stopped,conBlank2.started,conBlank2.stopped,RemText2.started,RemText2.stopped,leftText2.started,leftText2.stopped,rightText2.started,rightText2.stopped,yes2.started,yes2.stopped,no2.started,no2.stopped,text_2.started,text_2.stopped,participant,session,date,expName,psychopyVersion,frameRate,
"In this study you will be asked to evaluate a number of moral dilemmas under various conditions. 

You will be presented with 10 different scenario contexts and will respond to 5 conditions for each one.

For each scenario, you will proceed through five screens. These screens will describe a situation that you are hypothetically faced with and an action that you could perform in response to that situation. 

When you are done reading each screen, you can press SPACE to move on to the next one.

However, please try your best to get the fullest understanding of the scenario as described thus far before moving on to the next screen.",,,,,,,,,,,,,,,,0,0,0,0,,,,,,,,,,,,,,,,,,,,,,,,,11.030117399990559,None,space,7.305001999950036,11.030117399990559,None,,,,,,,,,,,,,,,,,,,,,,,,,,,,,,,,,,,,,,,,,,,,,,,,,,,,,,,,,,,,,,,,,1,001,2020_Feb_27_0954,MoralSRBinaryChoice,3.2.4,59.95387154480206,
"The scenario description will include all the information you need to make your decision EXCEPT that it will not explicitly state the values for two features of the dilemma:

a) a number of people involved in part of the scenario, and 

b) a likelihood that something will happen

You will be evaluating this scenario given a number of variations of these features.

The fourth and final screen will provide you with the prompt that you will be answering for each of these variations - namely, whether or not it is morally acceptable for you to perform the action in question.",,,,,,,,,,,,,,,,0,1,1,1,,,,,,,,,,,,,,,,,,,,,,,,,18.430986899882555,None,space,0.4483530998695642,18.430986899882555,None,,,,,,,,,,,,,,,,,,,,,,,,,,,,,,,,,,,,,,,,,,,,,,,,,,,,,,,,,,,,,,,,,1,001,2020_Feb_27_0954,MoralSRBinaryChoice,3.2.4,59.95387154480206,
"After you have understood the scenario context and the question you will be answering, you can press SPACE to move on to the individual trials that will fill these gaps for you in the scenario.

Before you do so, please try your best to hold in mind what the action is that you will be evaluating across trials, as you will not be reminded of this after this screen.

First, you will see a "+" in the middle of the screen. Any time that this is up, all you need to do is fixate on the "+" and prepare to respond to the next trial. 

Next, you will see text appear indicating the missing information. You should then evaluate the action in question in the context of these values given, and make a judgment of its moral acceptibility.

You will then indicate the course of action you would like to take in each scenario; by pressing either 'y' on your keyboard to indicate 'Yes', or 'n' to indicate 'No.'
",,,,,,,,,,,,,,,,0,2,2,2,,,,,,,,,,,,,,,,,,,,,,,,,19.03106309985742,None,space,0.5200201000552624,19.03106309985742,None,,,,,,,,,,,,,,,,,,,,,,,,,,,,,,,,,,,,,,,,,,,,,,,,,,,,,,,,,,,,,,,,,1,001,2020_Feb_27_0954,MoralSRBinaryChoice,3.2.4,59.95387154480206,
"After you answer you will again see a "+" in the middle of the screen, followed by the next trial. This will occur for 5 different variations of each scenario. 

It is important that you try your best to judge each trial in isolation, and avoid consideration of past responses for the current scenario or past scenarios.

Once you have pressed a button there is no way to go back to the previous screen. If you press the wrong button or if you press a button too soon, don't worry.",,,,,,,,,,,,,,,,0,3,3,3,,,,,,,,,,,,,,,,,,,,,,,,,19.628232599934563,None,space,3.7949975000228733,19.628232599934563,None,,,,,,,,,,,,,,,,,,,,,,,,,,,,,,,,,,,,,,,,,,,,,,,,,,,,,,,,,,,,,,,,,1,001,2020_Feb_27_0954,MoralSRBinaryChoice,3.2.4,59.95387154480206,
"Moral judgments can be difficult to make, and we understand that people sometimes change their minds about moral questions or feel conflicted about the answers they've given. Don't think of your answers as "written in stone." All we want from you is a thoughtful first response.

While we want your answers to be thoughtful, you may find that in some cases the right answer seems immediately obvious. If that happens, it's okay to answer quickly. There are no trick questions, and in every case we have done our best to make the relevant information as clear as possible. 

Note, however, that no two scenarios are the same, although many are similar to each other. To answer a question properly you will have to read it carefully because it will always be different in some way from the questions you have already answered. ",,,,,,,,,,,,,,,,0,4,4,4,,,,,,,,,,,,,,,,,,,,,,,,,23.57385280006565,None,space,0.26511380006559193,23.57385280006565,None,,,,,,,,,,,,,,,,,,,,,,,,,,,,,,,,,,,,,,,,,,,,,,,,,,,,,,,,,,,,,,,,,1,001,2020_Feb_27_0954,MoralSRBinaryChoice,3.2.4,59.95387154480206,
"In some cases, you might feel that the situation we've described is not realistic. For example, it might say that if you do X, then Y will happen, and you might think that this is not realistic, that Y might not necessarily happen if you do X. If you find yourself having these sorts of doubts, you should suspend disbelief and assume that the situation really is the way it's described, even if it doesn't seem realistic to you.

Likewise, you may feel that you need more information than is provided about the situation before you can give your answer. If this happens, you should make your best guess about what you think the situation is like without making any unneccessary assumptions. 

For example, if it doesn't say that the other person in the situation is related to you, then you should assume that you and the other person are unrelated. ",,,,,,,,,,,,,,,,0,5,5,5,,,,,,,,,,,,,,,,,,,,,,,,,23.96548009989783,None,space,0.35422330000437796,23.96548009989783,None,,,,,,,,,,,,,,,,,,,,,,,,,,,,,,,,,,,,,,,,,,,,,,,,,,,,,,,,,,,,,,,,,1,001,2020_Feb_27_0954,MoralSRBinaryChoice,3.2.4,59.95387154480206,
"Finally, after reading the scenario you will be making decisions about, you will be given a regulation strategy. Please employ this regulation strategy when making your decisions. 

You will be instructed to either "DE-EMPHASIZE" or "EMPHASIZE." When you see the word "DE-EMPHASIZE," we would like you to reinterpret the upcoming decision as one of many opportunities, and that the outcome is not very important. Try to think that the decision is not a big deal; you will have other chances.

When you see the word "EMPHASIZE" we would like you to stress the importance of the upcoming decision. Please reinterpret the upcoming decision as very important and one in which you need to make the right choice. Try to think that it matters a lot what you choose. ",,,,,,,,,,,,,,,,0,6,6,6,,,,,,,,,,,,,,,,,,,,,,,,,24.447581599932164,None,space,0.3674552000593394,24.447581599932164,None,,,,,,,,,,,,,,,,,,,,,,,,,,,,,,,,,,,,,,,,,,,,,,,,,,,,,,,,,,,,,,,,,1,001,2020_Feb_27_0954,MoralSRBinaryChoice,3.2.4,59.95387154480206,
"When you are done reading this screen you will begin a practice scenario. 

Once again, you can press SPACE to advance through the first five screens. Then you will encounter a number of trials which you will decide if you want to implement an action or not, by pressing the 'y' or 'n' key.

Press SPACE to begin the practice trials!
",,,,,,,,,,,,,,,,0,7,7,7,,,,,,,,,,,,,,,,,,,,,,,,,24.88864089990966,None,space,0.4544830999802798,24.88864089990966,None,,,,,,,,,,,,,,,,,,,,,,,,,,,,,,,,,,,,,,,,,,,,,,,,,,,,,,,,,,,,,,,,,1,001,2020_Feb_27_0954,MoralSRBinaryChoice,3.2.4,59.95387154480206,
,000:005,EMPHASIZE,DE-EMPHASIZE," You are the head of a safety crew that has been alerted about a group of skydivers that is wearing defective parachutes and is currently in a freefall 

 You've arrived in time to see that a group of divers is holding onto one another and will fall to their death a few feet to your right unless your crew's trampoline is moved beneath them",Skydivers on right: 6,"Probability of 
parachute opening: 35% ","Plan: Direct your crew to the right, repositioning the trampoline and leaving the skydivers on the left to die 

Do nothing: The skydivers on the left will live, the group on the right  has a chance of surviving","The 3 skydivers on the left were saved.
 
The ","The 3 skydivers on the left died.

The 6 skydivers on the right were saved.",6,35, skydivers on the right,Skydivers on the left: 3,skydivers.jpg,,,,,,0,0,0,0,0,0,0,0,,,,,,,,,,,,,,,,,,,,,,,25.372750699985772,None,27.442643699934706,None,27.442643699934706,None,space,1.2442949002142996,27.442643699934706,None,,,,,,,,,,,,,,,,,,,,,,,,,,,,,,,,,,,,,,,,,,,,,,,,,,,,,,,1,001,2020_Feb_27_0954,MoralSRBinaryChoice,3.2.4,59.95387154480206,
,000:005,EMPHASIZE,DE-EMPHASIZE," Your crew sees a smaller group of divers apart from the rest who are much closer to reaching the ground, and instinctively moves a few feet to the left to catch them

 You know that there won't be enough time to reach the group on the right if you wait to catch the group on the left",Skydivers on right: 9,"Probability of 
parachute opening: 50% ","Plan: Direct your crew to the right, repositioning the trampoline and leaving the skydivers on the left to die 

Do nothing: The skydivers on the left will live, the group on the right  has a chance of surviving","The 4 skydivers on the left were saved.
 
The ","The 4 skydivers on the left died.

The 9 skydivers on the right were saved.",9,50, skydivers on the right,Skydivers on the left: 4,skydivers.jpg,,,,,,0,0,0,0,0,1,1,1,,,,,,,,,,,,,,,,,,,,,,,,,28.742569499881938,None,28.742569499881938,None,space,0.6964151000138372,28.742569499881938,None,,,,,,,,,,,,,,,,,,,,,,,,,,,,,,,,,,,,,,,,,,,,,,,,,,,,,,,1,001,2020_Feb_27_0954,MoralSRBinaryChoice,3.2.4,59.95387154480206,
,000:005,EMPHASIZE,DE-EMPHASIZE," If nothing is done, the safety crew will catch the divers to the left, avoiding their death, but the separate group of divers will land on the ground, causing their deaths

 You can re-direct your crew to the right, preventing the death of the group, but the divers on the left won't be caught",Skydivers on right: 5,"Probability of 
parachute opening: 50% ","Plan: Direct your crew to the right, repositioning the trampoline and leaving the skydivers on the left to die 

Do nothing: The skydivers on the left will live, the group on the right  has a chance of surviving","The 2 skydivers on the left were saved.
 
The ","The 2 skydivers on the left died.

The 5 skydivers on the right were saved.",5,50, skydivers on the right,Skydivers on the left: 2,skydivers.jpg,,,,,,0,0,0,0,0,2,2,2,,,,,,,,,,,,,,,,,,,,,,,,,29.493043599883094,None,29.493043599883094,None,space,0.3781312999781221,29.493043599883094,None,,,,,,,,,,,,,,,,,,,,,,,,,,,,,,,,,,,,,,,,,,,,,,,,,,,,,,,1,001,2020_Feb_27_0954,MoralSRBinaryChoice,3.2.4,59.95387154480206,
,000:005,EMPHASIZE,DE-EMPHASIZE," You also know that there is a chance that one of the parachutes of the group will still open in time to prevent all of their deaths

 There is no chance that the parachute will open for the one diver, given how close he is to the ground",Skydivers on right: 4,"Probability of 
parachute opening: 65% ","Plan: Direct your crew to the right, repositioning the trampoline and leaving the skydivers on the left to die 

Do nothing: The skydivers on the left will live, the group on the right  has a chance of surviving","The 3 skydivers on the left were saved.
 
The ","The 3 skydivers on the left died.

The 4 skydivers on the right were saved.",4,65, skydivers on the right,Skydivers on the left: 3,skydivers.jpg,,,,,,0,0,0,0,0,3,3,3,,,,,,,,,,,,,,,,,,,,,,,,,29.919108300004154,None,29.919108300004154,None,space,0.35188809991814196,29.919108300004154,None,,,,,,,,,,,,,,,,,,,,,,,,,,,,,,,,,,,,,,,,,,,,,,,,,,,,,,,1,001,2020_Feb_27_0954,MoralSRBinaryChoice,3.2.4,59.95387154480206,
,000:005,EMPHASIZE,DE-EMPHASIZE,"Consider each of the following scenarios and, for each one, determine what course of action you will take. ",Skydivers on right: 8,"Probability of 
parachute opening: 65% ","Plan: Direct your crew to the right, repositioning the trampoline and leaving the skydivers on the left to die 

Do nothing: The skydivers on the left will live, the group on the right  has a chance of surviving","The 5 skydivers on the left were saved.
 
The ","The 5 skydivers on the left died.

The 8 skydivers on the right were saved.",8,65, skydivers on the right,Skydivers on the left: 5,skydivers.jpg,,,,,,0,0,0,0,0,4,4,4,,,,,,,,,,,,,,,,,,,,,,,,,30.31431100005284,None,30.31431100005284,None,space,0.3086178998928517,30.31431100005284,None,,,,,,,,,,,,,,,,,,,,,,,,,,,,,,,,,,,,,,,,,,,,,,,,,,,,,,,1,001,2020_Feb_27_0954,MoralSRBinaryChoice,3.2.4,59.95387154480206,
,000:005,EMPHASIZE,DE-EMPHASIZE," You are the head of a safety crew that has been alerted about a group of skydivers that is wearing defective parachutes and is currently in a freefall 

 You've arrived in time to see that a group of divers is holding onto one another and will fall to their death a few feet to your right unless your crew's trampoline is moved beneath them",Skydivers on right: 6,"Probability of 
parachute opening: 35% ","Plan: Direct your crew to the right, repositioning the trampoline and leaving the skydivers on the left to die 

Do nothing: The skydivers on the left will live, the group on the right  has a chance of surviving","The 3 skydivers on the left were saved.
 
The ","The 3 skydivers on the left died.

The 6 skydivers on the right were saved.",6,35, skydivers on the right,Skydivers on the left: 3,skydivers.jpg,,,,,,0,0,0,0,,,,,0,0,0,0,,,,,,,,,,,,,,,,,,,44.588989099953324,None,,,,,,,,,n,3.8393182000145316,32.70368289994076,None,36.565672900062054,None,32.70368289994076,None,32.70368289994076,None,32.70368289994076,None,32.70368289994076,None,32.70368289994076,None,32.70368289994076,None,40.60254009999335,None,,,,,,,,,,,,,,,,,,,,,,,,,,,,,,,,,,,1,001,2020_Feb_27_0954,MoralSRBinaryChoice,3.2.4,59.95387154480206,
,000:005,EMPHASIZE,DE-EMPHASIZE," Your crew sees a smaller group of divers apart from the rest who are much closer to reaching the ground, and instinctively moves a few feet to the left to catch them

 You know that there won't be enough time to reach the group on the right if you wait to catch the group on the left",Skydivers on right: 9,"Probability of 
parachute opening: 50% ","Plan: Direct your crew to the right, repositioning the trampoline and leaving the skydivers on the left to die 

Do nothing: The skydivers on the left will live, the group on the right  has a chance of surviving","The 4 skydivers on the left were saved.
 
The ","The 4 skydivers on the left died.

The 9 skydivers on the right were saved.",9,50, skydivers on the right,Skydivers on the left: 4,skydivers.jpg,,,,,,0,0,0,0,,,,,0,1,1,1,,,,,,,,,,,,,,,,,,,57.54983319994062,None,,,,,,,,,n,2.9323960000183433,46.587184799835086,None,49.543114400003105,None,46.587184799835086,None,46.587184799835086,None,46.587184799835086,None,46.587184799835086,None,46.587184799835086,None,46.587184799835086,None,53.56856869999319,None,,,,,,,,,,,,,,,,,,,,,,,,,,,,,,,,,,,1,001,2020_Feb_27_0954,MoralSRBinaryChoice,3.2.4,59.95387154480206,
,000:005,EMPHASIZE,DE-EMPHASIZE," If nothing is done, the safety crew will catch the divers to the left, avoiding their death, but the separate group of divers will land on the ground, causing their deaths

 You can re-direct your crew to the right, preventing the death of the group, but the divers on the left won't be caught",Skydivers on right: 5,"Probability of 
parachute opening: 50% ","Plan: Direct your crew to the right, repositioning the trampoline and leaving the skydivers on the left to die 

Do nothing: The skydivers on the left will live, the group on the right  has a chance of surviving","The 2 skydivers on the left were saved.
 
The ","The 2 skydivers on the left died.

The 5 skydivers on the right were saved.",5,50, skydivers on the right,Skydivers on the left: 2,skydivers.jpg,,,,,,0,0,0,0,,,,,0,2,2,2,,,,,,,,,,,,,,,,,,,68.44190840004012,None,,,,,,,,,n,0.8590629000682384,59.55603199987672,None,60.43568019988015,None,59.55603199987672,None,59.55603199987672,None,59.55603199987672,None,59.55603199987672,None,59.55603199987672,None,59.55603199987672,None,64.4540655000601,None,,,,,,,,,,,,,,,,,,,,,,,,,,,,,,,,,,,1,001,2020_Feb_27_0954,MoralSRBinaryChoice,3.2.4,59.95387154480206,
,000:005,EMPHASIZE,DE-EMPHASIZE," You also know that there is a chance that one of the parachutes of the group will still open in time to prevent all of their deaths

 There is no chance that the parachute will open for the one diver, given how close he is to the ground",Skydivers on right: 4,"Probability of 
parachute opening: 65% ","Plan: Direct your crew to the right, repositioning the trampoline and leaving the skydivers on the left to die 

Do nothing: The skydivers on the left will live, the group on the right  has a chance of surviving","The 3 skydivers on the left were saved.
 
The ","The 3 skydivers on the left died.

The 4 skydivers on the right were saved.",4,65, skydivers on the right,Skydivers on the left: 3,skydivers.jpg,,,,,,0,0,0,0,,,,,0,3,3,3,,,,,,,,,,,,,,,,,,,83.20442550000735,None,,,,,,,,,n,4.714086899999529,70.45294889993966,None,75.19795339996926,None,70.45294889993966,None,70.45294889993966,None,70.45294889993966,None,70.45294889993966,None,70.45294889993966,None,70.45294889993966,None,79.21460479986854,None,,,,,,,,,,,,,,,,,,,,,,,,,,,,,,,,,,,1,001,2020_Feb_27_0954,MoralSRBinaryChoice,3.2.4,59.95387154480206,
,000:005,EMPHASIZE,DE-EMPHASIZE,"Consider each of the following scenarios and, for each one, determine what course of action you will take. ",Skydivers on right: 8,"Probability of 
parachute opening: 65% ","Plan: Direct your crew to the right, repositioning the trampoline and leaving the skydivers on the left to die 

Do nothing: The skydivers on the left will live, the group on the right  has a chance of surviving","The 5 skydivers on the left were saved.
 
The ","The 5 skydivers on the left died.

The 8 skydivers on the right were saved.",8,65, skydivers on the right,Skydivers on the left: 5,skydivers.jpg,,,,,,0,0,0,0,,,,,0,4,4,4,,,,,,,,,,,,,,,,,,,94.73044710000977,None,,,,,,,,,n,1.492280300008133,85.21127259987406,None,86.72407260001637,None,85.21127259987406,None,85.21127259987406,None,85.21127259987406,None,85.21127259987406,None,85.21127259987406,None,85.21127259987406,None,90.74589859996922,None,,,,,,,,,,,,,,,,,,,,,,,,,,,,,,,,,,,1,001,2020_Feb_27_0954,MoralSRBinaryChoice,3.2.4,59.95387154480206,
,000:005,EMPHASIZE,DE-EMPHASIZE,,,,,,,,,,,,,,,,,0,0,0,0,,,,,,,,,,,,,,,,,,,,,,,,,,,,,,,,,,,,,,,,,,,,,,,,,,,,,,,,,,,,,,,,,,,,,,,,,,,,,,,,,,,,,,,,,,,1,001,2020_Feb_27_0954,MoralSRBinaryChoice,3.2.4,59.95387154480206,
,,,,,,,,,,,,,,,,,,,,,,,,,,,,,,,,,,,,,,,,,,,,,,,,,,,,,,,,,,,,,,,,,,,,,,,,,,,,,,,,96.73240779992193,None,99.73481129994616,None,space,0.9847158000338823,99.73481129994616,None,,,,,,,,,,,,,,,,,,,,,,,,,,,1,001,2020_Feb_27_0954,MoralSRBinaryChoice,3.2.4,59.95387154480206,
,,EMPHASIZE,DE-EMPHASIZE," You are standing on a footbridge that is going over train tracks

 Below you see a car has gotten stuck on the train tracks, and a train is quickly approaching",People in the car: 10,"Probability the people in the car 
will be able to escape in time: 50%","Plan: Push the pedestrians over, causing them to hit the train and die

Do nothing: The pedestrians will live, the people in the car have a chance of surviving","The 5 pedestrians lived.

The ","The 5 pedestrians died,

The 10 people in the car were saved.",10,50, people in the car,Pedestrians on the bridge: 5,fbridge.jpg,055:060,,,,,,,,,,,,,,,,,0,0,0,10,0,0,0,0,,,,,,,,,,,100.73711519991048,None,,,,,,,,,,,,,,,,,,,,,,,,,,,,,,,,,,,,,102.78150329994969,None,space,2.3224172999616712,102.78150329994969,None,102.78150329994969,None,,,,,,,,,,,,,,,,,,,1,001,2020_Feb_27_0954,MoralSRBinaryChoice,3.2.4,59.95387154480206,
,,EMPHASIZE,DE-EMPHASIZE," There is a small group of pedestrians leaning over the footbridge

 You know that if you push the pedestrians over the bridge, they will hit the oncoming train, causing it to stop before it reaches the car",People in the car: 8,"Probability the people in the car 
will be able to escape in time: 35%","Plan: Push the pedestrians over, causing them to hit the train and die

Do nothing: The pedestrians will live, the people in the car have a chance of surviving","The 2 pedestrians lived.

The ","The 2 pedestrians died,

The 8 people in the car were saved.",8,35, people in the car,Pedestrians on the bridge: 2,fbridge.jpg,055:060,,,,,,,,,,,,,,,,,0,0,0,10,0,1,1,1,,,,,,,,,,,,,,,,,,,,,,,,,,,,,,,,,,,,,,,,,,,,,,,,,105.15270219999366,None,space,0.5746620998252183,105.15270219999366,None,105.15270219999366,None,,,,,,,,,,,,,,,,,,,1,001,2020_Feb_27_0954,MoralSRBinaryChoice,3.2.4,59.95387154480206,
,,EMPHASIZE,DE-EMPHASIZE," You also know that there is some chance the people in the car will be able to escape before the train comes

 If you push the pedestrians, they will certainly fall to their deaths",People in the car: 4,"Probability the people in the car 
will be able to escape in time: 65%","Plan: Push the pedestrians over, causing them to hit the train and die

Do nothing: The pedestrians will live, the people in the car have a chance of surviving","The 2 pedestrians lived.

The ","The 2 pedestrians died,

The 4 people in the car were saved.",4,65, people in the car,Pedestrians on the bridge: 2,fbridge.jpg,055:060,,,,,,,,,,,,,,,,,0,0,0,10,0,2,2,2,,,,,,,,,,,,,,,,,,,,,,,,,,,,,,,,,,,,,,,,,,,,,,,,,105.78480029990897,None,space,0.6145102998707443,105.78480029990897,None,105.78480029990897,None,,,,,,,,,,,,,,,,,,,1,001,2020_Feb_27_0954,MoralSRBinaryChoice,3.2.4,59.95387154480206,
,,EMPHASIZE,DE-EMPHASIZE," In order to ensure the people in the car will be saved, you would have to push the pedestrians now",People in the car: 6,"Probability the people in the car 
will be able to escape in time: 50%","Plan: Push the pedestrians over, causing them to hit the train and die

Do nothing: The pedestrians will live, the people in the car have a chance of surviving","The 5 pedestrians lived.

The ","The 5 pedestrians died,

The 6 people in the car were saved.",6,35, people in the car,Pedestrians on the bridge: 5,fbridge.jpg,055:060,,,,,,,,,,,,,,,,,0,0,0,10,0,3,3,3,,,,,,,,,,,,,,,,,,,,,,,,,,,,,,,,,,,,,,,,,,,,,,,,,106.44516050000675,None,space,0.5622549999970943,106.44516050000675,None,106.44516050000675,None,,,,,,,,,,,,,,,,,,,1,001,2020_Feb_27_0954,MoralSRBinaryChoice,3.2.4,59.95387154480206,
,,EMPHASIZE,DE-EMPHASIZE,"Consider each of the following scenarios and, for each one, determine what course of action you will take. ",People in the car: 10,"Probability the people in the car 
will be able to escape in time: 35%","Plan: Push the pedestrians over, causing them to hit the train and die

Do nothing: The pedestrians will live, the people in the car have a chance of surviving","The 3 pedestrians lived.

The ","The 3 pedestrians died,

The 10 people in the car were saved.",10,35, people in the car,Pedestrians on the bridge: 3,fbridge.jpg,055:060,,,,,,,,,,,,,,,,,0,0,0,10,0,4,4,4,,,,,,,,,,,,,,,,,,,,,,,,,,,,,,,,,,,,,,,,,,,,,,,,,107.05082480004057,None,space,0.7889612999279052,107.05082480004057,None,107.05082480004057,None,,,,,,,,,,,,,,,,,,,1,001,2020_Feb_27_0954,MoralSRBinaryChoice,3.2.4,59.95387154480206,
,,EMPHASIZE,DE-EMPHASIZE," You are standing on a footbridge that is going over train tracks

 Below you see a car has gotten stuck on the train tracks, and a train is quickly approaching",People in the car: 10,"Probability the people in the car 
will be able to escape in time: 50%","Plan: Push the pedestrians over, causing them to hit the train and die

Do nothing: The pedestrians will live, the people in the car have a chance of surviving","The 5 pedestrians lived.

The ","The 5 pedestrians died,

The 10 people in the car were saved.",10,50, people in the car,Pedestrians on the bridge: 5,fbridge.jpg,055:060,,,,,,,,,,,,,,,,,0,0,0,10,,,,,0,0,0,0,,,,,,,119.65139709995128,None,,,,,,,,,,,,,,,,,,,,,,,,,,,115.66455599991605,None,,,,,,,,,,,,,,,,,n,1.7018949000630528,109.9131672999356,None,111.64483899995685,None,109.9131672999356,None,109.9131672999356,None,109.9131672999356,None,109.9131672999356,None,109.9131672999356,None,109.9131672999356,None,1,001,2020_Feb_27_0954,MoralSRBinaryChoice,3.2.4,59.95387154480206,
,,EMPHASIZE,DE-EMPHASIZE," There is a small group of pedestrians leaning over the footbridge

 You know that if you push the pedestrians over the bridge, they will hit the oncoming train, causing it to stop before it reaches the car",People in the car: 8,"Probability the people in the car 
will be able to escape in time: 35%","Plan: Push the pedestrians over, causing them to hit the train and die

Do nothing: The pedestrians will live, the people in the car have a chance of surviving","The 2 pedestrians lived.

The ","The 2 pedestrians died,

The 8 people in the car were saved.",8,35, people in the car,Pedestrians on the bridge: 2,fbridge.jpg,055:060,,,,,,,,,,,,,,,,,0,0,0,10,,,,,0,1,1,1,,,,,,,131.46090219984762,None,,,,,,,,,,,,,,,,,,,,,,,,,,,127.468412599992,None,,,,,,,,,,,,,,,,,n,1.7736708999145776,121.66525770002045,None,123.45439389999956,None,121.66525770002045,None,121.66525770002045,None,121.66525770002045,None,121.66525770002045,None,121.66525770002045,None,121.66525770002045,None,1,001,2020_Feb_27_0954,MoralSRBinaryChoice,3.2.4,59.95387154480206,
,,EMPHASIZE,DE-EMPHASIZE," You also know that there is some chance the people in the car will be able to escape before the train comes

 If you push the pedestrians, they will certainly fall to their deaths",People in the car: 4,"Probability the people in the car 
will be able to escape in time: 65%","Plan: Push the pedestrians over, causing them to hit the train and die

Do nothing: The pedestrians will live, the people in the car have a chance of surviving","The 2 pedestrians lived.

The ","The 2 pedestrians died,

The 4 people in the car were saved.",4,65, people in the car,Pedestrians on the bridge: 2,fbridge.jpg,055:060,,,,,,,,,,,,,,,,,0,0,0,10,,,,,0,2,2,2,,,,,,,142.03633120004088,None,,,,,,,,,,,,,,,,,,,,,,,,,,,138.04539959994145,None,,,,,,,,,,,,,,,,,n,0.5455028000287712,133.4698932999745,None,134.02997849998064,None,133.4698932999745,None,133.4698932999745,None,133.4698932999745,None,133.4698932999745,None,133.4698932999745,None,133.4698932999745,None,1,001,2020_Feb_27_0954,MoralSRBinaryChoice,3.2.4,59.95387154480206,
,,EMPHASIZE,DE-EMPHASIZE," In order to ensure the people in the car will be saved, you would have to push the pedestrians now",People in the car: 6,"Probability the people in the car 
will be able to escape in time: 50%","Plan: Push the pedestrians over, causing them to hit the train and die

Do nothing: The pedestrians will live, the people in the car have a chance of surviving","The 5 pedestrians lived.

The ","The 5 pedestrians died,

The 6 people in the car were saved.",6,35, people in the car,Pedestrians on the bridge: 5,fbridge.jpg,055:060,,,,,,,,,,,,,,,,,0,0,0,10,,,,,0,3,3,3,,,,,,,155.91489799995907,None,,,,,,,,,,,,,,,,,,,,,,,,,,,151.92233269987628,None,,,,,,,,,,,,,,,,,n,3.8375891000032425,144.04994689999148,None,147.90828079986386,None,144.04994689999148,None,144.04994689999148,None,144.04994689999148,None,144.04994689999148,None,144.04994689999148,None,144.04994689999148,None,1,001,2020_Feb_27_0954,MoralSRBinaryChoice,3.2.4,59.95387154480206,
,,EMPHASIZE,DE-EMPHASIZE,"Consider each of the following scenarios and, for each one, determine what course of action you will take. ",People in the car: 10,"Probability the people in the car 
will be able to escape in time: 35%","Plan: Push the pedestrians over, causing them to hit the train and die

Do nothing: The pedestrians will live, the people in the car have a chance of surviving","The 3 pedestrians lived.

The ","The 3 pedestrians died,

The 10 people in the car were saved.",10,35, people in the car,Pedestrians on the bridge: 3,fbridge.jpg,055:060,,,,,,,,,,,,,,,,,0,0,0,10,,,,,0,4,4,4,,,,,,,171.7281283000484,None,,,,,,,,,,,,,,,,,,,,,,,,,,,167.73537310003303,None,,,,,,,,,,,,,,,,,n,5.766275099944323,157.9289676998742,None,163.72155010001734,None,157.9289676998742,None,157.9289676998742,None,157.9289676998742,None,157.9289676998742,None,157.9289676998742,None,157.9289676998742,None,1,001,2020_Feb_27_0954,MoralSRBinaryChoice,3.2.4,59.95387154480206,
,,EMPHASIZE,DE-EMPHASIZE,,,,,,,,,,,,055:060,,,,,,,,,,,,,,,,,0,0,0,10,,,,,,,,,,,,,,,,,,,,,,,,,,,,,,,,,,,,,,,,,,,,,,,,,,,,,,,,,,,,,,,,,,,,,,,,,,,,,,,1,001,2020_Feb_27_0954,MoralSRBinaryChoice,3.2.4,59.95387154480206,
,,EMPHASIZE,DE-EMPHASIZE," There has been a bomb planted in two buildings, drawing from the same set of wires

 You are a citizen who has found the wires that control the bomb",Workers in the office building: 4,"Probability the Bomb Squad
will arrive in time: 35%","Plan: Cut the green wire, blowing up the family in the home

Do nothing: The family will live, the office workers have a chance of surviving if the Bomb Squad comes ","The 3 family members lived.

The ","The 3 family members in the home died. 

The 4 workers in the office building were saved.",4,65, workers in the office building,"Family members in 
the home: 3",bomb.jpg,030:035,,,,,,,,,,,,,,,,,0,1,1,5,0,0,0,0,,,,,,,,,,,173.72987479995936,None,,,,,,,,,,,,,,,,,,,,,,,,,,,,,,,,,,,,,175.77186760003679,None,space,2.867303399834782,175.77186760003679,None,175.77186760003679,None,,,,,,,,,,,,,,,,,,,1,001,2020_Feb_27_0954,MoralSRBinaryChoice,3.2.4,59.95387154480206,
,,EMPHASIZE,DE-EMPHASIZE," The red wire is connected to the bomb in a small office building, which will explode if that wire is cut

 The green wire is connected to the bomb in a small home, where a family lives, and will explode if that wire is cut ",Workers in the office building: 7,"Probability the Bomb Squad
will arrive in time: 65%","Plan: Cut the green wire, blowing up the family in the home

Do nothing: The family will live, the office workers have a chance of surviving if the Bomb Squad comes ","The 4 family members lived.

The ","The 4 family members in the home died. 

The 7 workers in the office building were saved.",7,65, workers in the office building,"Family members in 
the home: 4",bomb.jpg,030:035,,,,,,,,,,,,,,,,,0,1,1,5,0,1,1,1,,,,,,,,,,,,,,,,,,,,,,,,,,,,,,,,,,,,,,,,,,,,,,,,,178.6866478000302,None,space,1.2805021998938173,178.6866478000302,None,178.6866478000302,None,,,,,,,,,,,,,,,,,,,1,001,2020_Feb_27_0954,MoralSRBinaryChoice,3.2.4,59.95387154480206,
,,EMPHASIZE,DE-EMPHASIZE," The time on the bomb is counting down, but you have time to cut one of the wires without risking harm to yourself 

 If you do nothing, the bomb will default to blow up the office building  ",Workers in the office building: 13,"Probability the Bomb Squad
will arrive in time: 50%","Plan: Cut the green wire, blowing up the family in the home

Do nothing: The family will live, the office workers have a chance of surviving if the Bomb Squad comes ","The 4 family members lived.

The ","The 4 family members in the home died. 

The 13 workers in the office building were saved.",13,35, workers in the office building,"Family members in 
the home: 4",bomb.jpg,030:035,,,,,,,,,,,,,,,,,0,1,1,5,0,2,2,2,,,,,,,,,,,,,,,,,,,,,,,,,,,,,,,,,,,,,,,,,,,,,,,,,180.0028675000649,None,space,0.5243539998773485,180.0028675000649,None,180.0028675000649,None,,,,,,,,,,,,,,,,,,,1,001,2020_Feb_27_0954,MoralSRBinaryChoice,3.2.4,59.95387154480206,
,,EMPHASIZE,DE-EMPHASIZE, You also know that there is a chance that the Bomb Squad will arrive in time to completely disable the bomb,Workers in the office building: 9,"Probability the Bomb Squad
will arrive in time: 50%","Plan: Cut the green wire, blowing up the family in the home

Do nothing: The family will live, the office workers have a chance of surviving if the Bomb Squad comes ","The 3 family members lived.

The ","The 3 family members in the home died. 

The 9 workers in the office building were saved.",9,35, workers in the office building,"Family members in 
the home: 3",bomb.jpg,030:035,,,,,,,,,,,,,,,,,0,1,1,5,0,3,3,3,,,,,,,,,,,,,,,,,,,,,,,,,,,,,,,,,,,,,,,,,,,,,,,,,180.5661192999687,None,space,0.6180223999544978,180.5661192999687,None,180.5661192999687,None,,,,,,,,,,,,,,,,,,,1,001,2020_Feb_27_0954,MoralSRBinaryChoice,3.2.4,59.95387154480206,
,,EMPHASIZE,DE-EMPHASIZE,"Consider each of the following scenarios and, for each one, determine what course of action you will take. ",Workers in the office building: 6,"Probability the Bomb Squad
will arrive in time: 50%","Plan: Cut the green wire, blowing up the family in the home

Do nothing: The family will live, the office workers have a chance of surviving if the Bomb Squad comes ","The 2 family members lived.

The ","The 2 family members in the home died. 

The 6 workers in the office building were saved.",6,50, workers in the office building,"Family members in 
the home: 2",bomb.jpg,030:035,,,,,,,,,,,,,,,,,0,1,1,5,0,4,4,4,,,,,,,,,,,,,,,,,,,,,,,,,,,,,,,,,,,,,,,,,,,,,,,,,181.21545349992812,None,space,0.3996482000220567,181.21545349992812,None,181.21545349992812,None,,,,,,,,,,,,,,,,,,,1,001,2020_Feb_27_0954,MoralSRBinaryChoice,3.2.4,59.95387154480206,
,,EMPHASIZE,DE-EMPHASIZE," There has been a bomb planted in two buildings, drawing from the same set of wires

 You are a citizen who has found the wires that control the bomb",Workers in the office building: 4,"Probability the Bomb Squad
will arrive in time: 35%","Plan: Cut the green wire, blowing up the family in the home

Do nothing: The family will live, the office workers have a chance of surviving if the Bomb Squad comes ","The 3 family members lived.

The ","The 3 family members in the home died. 

The 4 workers in the office building were saved.",4,65, workers in the office building,"Family members in 
the home: 3",bomb.jpg,030:035,,,,,,,,,,,,,,,,,0,1,1,5,,,,,0,0,0,0,,,,,,,193.04524399992079,None,,,,,,,,,,,,,,,,,,,,,,,,,,,189.05885649984702,None,,,,,,,,,,,,,,,,,n,1.3403508001938462,183.68276999983937,None,185.0389586999081,None,183.68276999983937,None,183.68276999983937,None,183.68276999983937,None,183.68276999983937,None,183.68276999983937,None,183.68276999983937,None,1,001,2020_Feb_27_0954,MoralSRBinaryChoice,3.2.4,59.95387154480206,
,,EMPHASIZE,DE-EMPHASIZE," The red wire is connected to the bomb in a small office building, which will explode if that wire is cut

 The green wire is connected to the bomb in a small home, where a family lives, and will explode if that wire is cut ",Workers in the office building: 7,"Probability the Bomb Squad
will arrive in time: 65%","Plan: Cut the green wire, blowing up the family in the home

Do nothing: The family will live, the office workers have a chance of surviving if the Bomb Squad comes ","The 4 family members lived.

The ","The 4 family members in the home died. 

The 7 workers in the office building were saved.",7,65, workers in the office building,"Family members in 
the home: 4",bomb.jpg,030:035,,,,,,,,,,,,,,,,,0,1,1,5,,,,,0,1,1,1,,,,,,,207.74094599997625,None,,,,,,,,,,,,,,,,,,,,,,,,,,,203.75663789990358,None,,,,,,,,,,,,,,,,,n,4.648243099916726,195.06313070002943,None,199.73464159993455,None,195.06313070002943,None,195.06313070002943,None,195.06313070002943,None,195.06313070002943,None,195.06313070002943,None,195.06313070002943,None,1,001,2020_Feb_27_0954,MoralSRBinaryChoice,3.2.4,59.95387154480206,
,,EMPHASIZE,DE-EMPHASIZE," The time on the bomb is counting down, but you have time to cut one of the wires without risking harm to yourself 

 If you do nothing, the bomb will default to blow up the office building  ",Workers in the office building: 13,"Probability the Bomb Squad
will arrive in time: 50%","Plan: Cut the green wire, blowing up the family in the home

Do nothing: The family will live, the office workers have a chance of surviving if the Bomb Squad comes ","The 4 family members lived.

The ","The 4 family members in the home died. 

The 13 workers in the office building were saved.",13,35, workers in the office building,"Family members in 
the home: 4",bomb.jpg,030:035,,,,,,,,,,,,,,,,,0,1,1,5,,,,,0,2,2,2,,,,,,,221.85264619998634,None,,,,,,,,,,,,,,,,,,,,,,,,,,,217.8640638999641,None,,,,,,,,,,,,,,,,,n,4.073547899955884,209.74958149995655,None,213.84632580005564,None,209.74958149995655,None,209.74958149995655,None,209.74958149995655,None,209.74958149995655,None,209.74958149995655,None,209.74958149995655,None,1,001,2020_Feb_27_0954,MoralSRBinaryChoice,3.2.4,59.95387154480206,
,,EMPHASIZE,DE-EMPHASIZE, You also know that there is a chance that the Bomb Squad will arrive in time to completely disable the bomb,Workers in the office building: 9,"Probability the Bomb Squad
will arrive in time: 50%","Plan: Cut the green wire, blowing up the family in the home

Do nothing: The family will live, the office workers have a chance of surviving if the Bomb Squad comes ","The 3 family members lived.

The ","The 3 family members in the home died. 

The 9 workers in the office building were saved.",9,35, workers in the office building,"Family members in 
the home: 3",bomb.jpg,030:035,,,,,,,,,,,,,,,,,0,1,1,5,,,,,0,3,3,3,,,,,,,233.7288653999567,None,,,,,,,,,,,,,,,,,,,,,,,,,,,229.73995630000718,None,,,,,,,,,,,,,,,,,n,1.8364263998810202,223.85879389988258,None,225.72258830000646,None,223.85879389988258,None,223.85879389988258,None,223.85879389988258,None,223.85879389988258,None,223.85879389988258,None,223.85879389988258,None,1,001,2020_Feb_27_0954,MoralSRBinaryChoice,3.2.4,59.95387154480206,
,,EMPHASIZE,DE-EMPHASIZE,"Consider each of the following scenarios and, for each one, determine what course of action you will take. ",Workers in the office building: 6,"Probability the Bomb Squad
will arrive in time: 50%","Plan: Cut the green wire, blowing up the family in the home

Do nothing: The family will live, the office workers have a chance of surviving if the Bomb Squad comes ","The 2 family members lived.

The ","The 2 family members in the home died. 

The 6 workers in the office building were saved.",6,50, workers in the office building,"Family members in 
the home: 2",bomb.jpg,030:035,,,,,,,,,,,,,,,,,0,1,1,5,,,,,0,4,4,4,,,,,,,247.20711019984446,None,,,,,,,,,,,,,,,,,,,,,,,,,,,243.21946449996904,None,,,,,,,,,,,,,,,,,n,3.447155100060627,235.7360733000096,None,239.20080829993822,None,235.7360733000096,None,235.7360733000096,None,235.7360733000096,None,235.7360733000096,None,235.7360733000096,None,235.7360733000096,None,1,001,2020_Feb_27_0954,MoralSRBinaryChoice,3.2.4,59.95387154480206,
,,EMPHASIZE,DE-EMPHASIZE,,,,,,,,,,,,030:035,,,,,,,,,,,,,,,,,0,1,1,5,,,,,,,,,,,,,,,,,,,,,,,,,,,,,,,,,,,,,,,,,,,,,,,,,,,,,,,,,,,,,,,,,,,,,,,,,,,,,,,1,001,2020_Feb_27_0954,MoralSRBinaryChoice,3.2.4,59.95387154480206,
,,EMPHASIZE,DE-EMPHASIZE," There is a group of ice fishermen towards the south side of a large frozen lake

 A group of scientists are on the north side of the lake drilling ice cores","Scientists at the 
north end of lake: 6","Probability scientists will
get out of the water: 35%","Plan: Drive to the scientists, causing the fishermen to fall into the water and die
Do nothing: The fishermen will live,  the scientists may get out of the water in time","The 3 fishermen on the south end lived.

The ","The 3 fishermen on the south end died.

The 6 scientists on the north end were saved.",6,35, scientists at the north end of the lake,Fishermen on the south end: 3,lake.jpg,025:030,,,,,,,,,,,,,,,,,0,2,2,4,0,0,0,0,,,,,,,,,,,249.2088595998939,None,,,,,,,,,,,,,,,,,,,,,,,,,,,,,,,,,,,,,251.26602089987136,None,space,1.725600800011307,251.26602089987136,None,251.26602089987136,None,,,,,,,,,,,,,,,,,,,1,001,2020_Feb_27_0954,MoralSRBinaryChoice,3.2.4,59.95387154480206,
,,EMPHASIZE,DE-EMPHASIZE,"The scientists sent out a distress call because the ice around them started to shatter and they have fallen into the freezing water

 You are an emergency worker who has been called to rescue the scientists","Scientists at the 
north end of lake: 14","Probability scientists will
get out of the water: 50%","Plan: Drive to the scientists, causing the fishermen to fall into the water and die
Do nothing: The fishermen will live,  the scientists may get out of the water in time","The 7 fishermen on the south end lived.

The ","The 7 fishermen on the south end died.

The 14 scientists on the north end were saved.",14,50, scientists at the north end of the lake,Fishermen on the south end: 7,lake.jpg,025:030,,,,,,,,,,,,,,,,,0,2,2,4,0,1,1,1,,,,,,,,,,,,,,,,,,,,,,,,,,,,,,,,,,,,,,,,,,,,,,,,,253.0563489999622,None,space,0.3351036000531167,253.0563489999622,None,253.0563489999622,None,,,,,,,,,,,,,,,,,,,1,001,2020_Feb_27_0954,MoralSRBinaryChoice,3.2.4,59.95387154480206,
,,EMPHASIZE,DE-EMPHASIZE," To reach the scientists in time, you would need to drive a vehicle across the ice, past the fishermen","Scientists at the 
north end of lake: 5","Probability scientists will
get out of the water: 35%","Plan: Drive to the scientists, causing the fishermen to fall into the water and die
Do nothing: The fishermen will live,  the scientists may get out of the water in time","The 2 fishermen on the south end lived.

The ","The 2 fishermen on the south end died.

The 5 scientists on the north end were saved.",5,50, scientists at the north end of the lake,Fishermen on the south end: 2,lake.jpg,025:030,,,,,,,,,,,,,,,,,0,2,2,4,0,2,2,2,,,,,,,,,,,,,,,,,,,,,,,,,,,,,,,,,,,,,,,,,,,,,,,,,253.45032519986853,None,space,0.5968386998865753,253.45032519986853,None,253.45032519986853,None,,,,,,,,,,,,,,,,,,,1,001,2020_Feb_27_0954,MoralSRBinaryChoice,3.2.4,59.95387154480206,
,,EMPHASIZE,DE-EMPHASIZE," If you do this, the weight of the vehicle would cause the ice to crack around the fishermen, causing them to fall into the water and die from the cold

 You also know that there is a chance that the scientists may be able to climb out of the freezing water before going into shock and dying","Scientists at the 
north end of lake: 7","Probability scientists will
get out of the water: 65%","Plan: Drive to the scientists, causing the fishermen to fall into the water and die
Do nothing: The fishermen will live,  the scientists may get out of the water in time","The 2 fishermen on the south end lived.

The ","The 2 fishermen on the south end died.

The 7 scientists on the north end were saved.",7,35, scientists at the north end of the lake,Fishermen on the south end: 2,lake.jpg,025:030,,,,,,,,,,,,,,,,,0,2,2,4,0,3,3,3,,,,,,,,,,,,,,,,,,,,,,,,,,,,,,,,,,,,,,,,,,,,,,,,,254.11327539989725,None,space,0.49404650018550456,254.11327539989725,None,254.11327539989725,None,,,,,,,,,,,,,,,,,,,1,001,2020_Feb_27_0954,MoralSRBinaryChoice,3.2.4,59.95387154480206,
,,EMPHASIZE,DE-EMPHASIZE,"Consider each of the following scenarios and, for each one, determine what course of action you will take. ","Scientists at the 
north end of lake: 9","Probability  scientists will
get out of the water: 50%","Plan: Drive to the scientists, causing the fishermen to fall into the water and die
Do nothing: The fishermen will live,  the scientists may get out of the water in time","The 7 fishermen on the south end lived.

The ","The 7 fishermen on the south end died.

The 9 scientists on the north end were saved.",9,65, scientists at the north end of the lake,Fishermen on the south end: 7,lake.jpg,025:030,,,,,,,,,,,,,,,,,0,2,2,4,0,4,4,4,,,,,,,,,,,,,,,,,,,,,,,,,,,,,,,,,,,,,,,,,,,,,,,,,254.66823219996877,None,space,0.4190020998939872,254.66823219996877,None,254.66823219996877,None,,,,,,,,,,,,,,,,,,,1,001,2020_Feb_27_0954,MoralSRBinaryChoice,3.2.4,59.95387154480206,
,,EMPHASIZE,DE-EMPHASIZE," There is a group of ice fishermen towards the south side of a large frozen lake

 A group of scientists are on the north side of the lake drilling ice cores","Scientists at the 
north end of lake: 6","Probability scientists will
get out of the water: 35%","Plan: Drive to the scientists, causing the fishermen to fall into the water and die
Do nothing: The fishermen will live,  the scientists may get out of the water in time","The 3 fishermen on the south end lived.

The ","The 3 fishermen on the south end died.

The 6 scientists on the north end were saved.",6,35, scientists at the north end of the lake,Fishermen on the south end: 3,lake.jpg,025:030,,,,,,,,,,,,,,,,,0,2,2,4,,,,,0,0,0,0,,,,,,,281.8358493000269,None,,,,,,,,,,,,,,,,,,,,,,,,,,,277.85217159986496,None,,,,,,,,,,,,,,,,,n,16.616115999873728,257.1912316000089,None,273.82918039988726,None,257.1912316000089,None,257.1912316000089,None,257.1912316000089,None,257.1912316000089,None,257.1912316000089,None,257.1912316000089,None,1,001,2020_Feb_27_0954,MoralSRBinaryChoice,3.2.4,59.95387154480206,
,,EMPHASIZE,DE-EMPHASIZE,"The scientists sent out a distress call because the ice around them started to shatter and they have fallen into the freezing water

 You are an emergency worker who has been called to rescue the scientists","Scientists at the 
north end of lake: 14","Probability scientists will
get out of the water: 50%","Plan: Drive to the scientists, causing the fishermen to fall into the water and die
Do nothing: The fishermen will live,  the scientists may get out of the water in time","The 7 fishermen on the south end lived.

The ","The 7 fishermen on the south end died.

The 14 scientists on the north end were saved.",14,50, scientists at the north end of the lake,Fishermen on the south end: 7,lake.jpg,025:030,,,,,,,,,,,,,,,,,0,2,2,4,,,,,0,1,1,1,,,,,,,295.88113870006055,None,,,,,,,,,,,,,,,,,,,,,,,,,,,291.8948747999966,None,,,,,,,,,,,,,,,,,n,4.003875099821016,283.85217930004,None,287.8740935998503,None,283.85217930004,None,283.85217930004,None,283.85217930004,None,283.85217930004,None,283.85217930004,None,283.85217930004,None,1,001,2020_Feb_27_0954,MoralSRBinaryChoice,3.2.4,59.95387154480206,
,,EMPHASIZE,DE-EMPHASIZE," To reach the scientists in time, you would need to drive a vehicle across the ice, past the fishermen","Scientists at the 
north end of lake: 5","Probability scientists will
get out of the water: 35%","Plan: Drive to the scientists, causing the fishermen to fall into the water and die
Do nothing: The fishermen will live,  the scientists may get out of the water in time","The 2 fishermen on the south end lived.

The ","The 2 fishermen on the south end died.

The 5 scientists on the north end were saved.",5,50, scientists at the north end of the lake,Fishermen on the south end: 2,lake.jpg,025:030,,,,,,,,,,,,,,,,,0,2,2,4,,,,,0,2,2,2,,,,,,,311.6942400999833,None,,,,,,,,,,,,,,,,,,,,,,,,,,,307.70830249995925,None,,,,,,,,,,,,,,,,,n,5.7684543000068516,297.894723800011,None,303.6876155999489,None,297.894723800011,None,297.894723800011,None,297.894723800011,None,297.894723800011,None,297.894723800011,None,297.894723800011,None,1,001,2020_Feb_27_0954,MoralSRBinaryChoice,3.2.4,59.95387154480206,
,,EMPHASIZE,DE-EMPHASIZE," If you do this, the weight of the vehicle would cause the ice to crack around the fishermen, causing them to fall into the water and die from the cold

 You also know that there is a chance that the scientists may be able to climb out of the freezing water before going into shock and dying","Scientists at the 
north end of lake: 7","Probability scientists will
get out of the water: 65%","Plan: Drive to the scientists, causing the fishermen to fall into the water and die
Do nothing: The fishermen will live,  the scientists may get out of the water in time","The 2 fishermen on the south end lived.

The ","The 2 fishermen on the south end died.

The 7 scientists on the north end were saved.",7,35, scientists at the north end of the lake,Fishermen on the south end: 2,lake.jpg,025:030,,,,,,,,,,,,,,,,,0,2,2,4,,,,,0,3,3,3,,,,,,,322.4529436000157,None,,,,,,,,,,,,,,,,,,,,,,,,,,,318.4680371999275,None,,,,,,,,,,,,,,,,,n,0.711696500191465,313.7037601999473,None,314.446668199962,None,313.7037601999473,None,313.7037601999473,None,313.7037601999473,None,313.7037601999473,None,313.7037601999473,None,313.7037601999473,None,1,001,2020_Feb_27_0954,MoralSRBinaryChoice,3.2.4,59.95387154480206,
,,EMPHASIZE,DE-EMPHASIZE,"Consider each of the following scenarios and, for each one, determine what course of action you will take. ","Scientists at the 
north end of lake: 9","Probability  scientists will
get out of the water: 50%","Plan: Drive to the scientists, causing the fishermen to fall into the water and die
Do nothing: The fishermen will live,  the scientists may get out of the water in time","The 7 fishermen on the south end lived.

The ","The 7 fishermen on the south end died.

The 9 scientists on the north end were saved.",9,65, scientists at the north end of the lake,Fishermen on the south end: 7,lake.jpg,025:030,,,,,,,,,,,,,,,,,0,2,2,4,,,,,0,4,4,4,,,,,,,334.11333570000716,None,,,,,,,,,,,,,,,,,,,,,,,,,,,330.1288121000398,None,,,,,,,,,,,,,,,,,n,1.611886699916795,324.4672838000115,None,326.1072003999725,None,324.4672838000115,None,324.4672838000115,None,324.4672838000115,None,324.4672838000115,None,324.4672838000115,None,324.4672838000115,None,1,001,2020_Feb_27_0954,MoralSRBinaryChoice,3.2.4,59.95387154480206,
,,EMPHASIZE,DE-EMPHASIZE,,,,,,,,,,,,025:030,,,,,,,,,,,,,,,,,0,2,2,4,,,,,,,,,,,,,,,,,,,,,,,,,,,,,,,,,,,,,,,,,,,,,,,,,,,,,,,,,,,,,,,,,,,,,,,,,,,,,,,1,001,2020_Feb_27_0954,MoralSRBinaryChoice,3.2.4,59.95387154480206,
,,DE-EMPHASIZE,EMPHASIZE,"There is a live wire dangling from an electric pole

 There is an electrician at the top of the pole trying to gather the wire before it falls into a pool below, where a group of people are swimming","People in the swimming 
 pool: 13","Probability the wire
will be caught in time: 50%","Plan: Throw the rock, redirecting the wire and killing the pedestrians

Do nothing: The pedestrians will live, the people in the swimming pool have a chance of surviving if the wire is caught","The 9 pedestrians lived.

The ","The 9 pedestrians died.

The 13 people in the swimming pool were saved.",13,65, people in the swimming pool,"Pedestrians on the 
sidewalk: 9",pool.jpg,045:050,,,,,,,,,,,,,,,,,0,3,3,8,0,0,0,0,,,,,,,,,,,336.11506109987386,None,,,,,,,,,,,,,,,,,,,,,,,,,,,,,,,,,,,,,338.1492573998403,None,space,3.162700799992308,338.1492573998403,None,338.1492573998403,None,,,,,,,,,,,,,,,,,,,1,001,2020_Feb_27_0954,MoralSRBinaryChoice,3.2.4,59.95387154480206,
,,DE-EMPHASIZE,EMPHASIZE,"There is a sizeable rock on the ground near you, which you can throw at the wire to redirect where it falls","People in the swimming 
pool: 9","Probability the wire
will be caught in time: 35%","Plan: Throw the rock, redirecting the wire and killing the pedestrians

Do nothing: The pedestrians will live, the people in the swimming pool have a chance of surviving if the wire is caught","The 4 pedestrians lived.

The ","The 4 pedestrians died.

The 9 people in the swimming pool were saved.",9,50, people in the swimming pool,"Pedestrians on the 
sidewalk: 4",pool.jpg,045:050,,,,,,,,,,,,,,,,,0,3,3,8,0,1,1,1,,,,,,,,,,,,,,,,,,,,,,,,,,,,,,,,,,,,,,,,,,,,,,,,,341.34660999989137,None,space,0.31651780009269714,341.34660999989137,None,341.34660999989137,None,,,,,,,,,,,,,,,,,,,1,001,2020_Feb_27_0954,MoralSRBinaryChoice,3.2.4,59.95387154480206,
,,DE-EMPHASIZE,EMPHASIZE,"  If you do this, the wire will land on a group of pedestrians on the sidewalk, electrocuting and killing them","People in the swimming 
pool: 9","Probability the wire
will be caught in time: 65%","Plan: Throw the rock, redirecting the wire and killing the pedestrians

Do nothing: The pedestrians will live, the people in the swimming pool have a chance of surviving if the wire is caught","The 3 pedestrians lived.

The ","The 3 pedestrians died.

The 9 people in the swimming pool were saved.",9,35, people in the swimming pool,"Pedestrians on the 
sidewalk: 3",pool.jpg,045:050,,,,,,,,,,,,,,,,,0,3,3,8,0,2,2,2,,,,,,,,,,,,,,,,,,,,,,,,,,,,,,,,,,,,,,,,,,,,,,,,,341.6938950999174,None,space,0.25744959991425276,341.6938950999174,None,341.6938950999174,None,,,,,,,,,,,,,,,,,,,1,001,2020_Feb_27_0954,MoralSRBinaryChoice,3.2.4,59.95387154480206,
,,DE-EMPHASIZE,EMPHASIZE," However, the electrician might be able to catch the wire before it falls","People in the swimming 
pool: 7","Probability the wire
will be caught in time: 35%","Plan: Throw the rock, redirecting the wire and killing the pedestrians

Do nothing: The pedestrians will live, the people in the swimming pool have a chance of surviving if the wire is caught","The 4 pedestrians lived.

The ","The 4 pedestrians died.

The 7 people in the swimming pool were saved.",7,65, people in the swimming pool,"Pedestrians on the 
sidewalk: 4",pool.jpg,045:050,,,,,,,,,,,,,,,,,0,3,3,8,0,3,3,3,,,,,,,,,,,,,,,,,,,,,,,,,,,,,,,,,,,,,,,,,,,,,,,,,341.9758146998938,None,space,0.2954313000664115,341.9758146998938,None,341.9758146998938,None,,,,,,,,,,,,,,,,,,,1,001,2020_Feb_27_0954,MoralSRBinaryChoice,3.2.4,59.95387154480206,
,,DE-EMPHASIZE,EMPHASIZE,"Consider each of the following scenarios and, for each one, determine what course of action you will take. ","People in the swimming 
pool: 6","Probability the wire
will be caught in time: 50%","Plan: Throw the rock, redirecting the wire and killing the pedestrians

Do nothing: The pedestrians will live, the people in the swimming pool have a chance of surviving if the wire is caught","The 3 pedestrians lived.

The ","The 3 pedestrians died.

The 6 people in the swimming pool were saved.",6,50, people in the swimming pool,"Pedestrians on the 
sidewalk: 3",pool.jpg,045:050,,,,,,,,,,,,,,,,,0,3,3,8,0,4,4,4,,,,,,,,,,,,,,,,,,,,,,,,,,,,,,,,,,,,,,,,,,,,,,,,,342.29508910002187,None,space,0.37608030019328,342.29508910002187,None,342.29508910002187,None,,,,,,,,,,,,,,,,,,,1,001,2020_Feb_27_0954,MoralSRBinaryChoice,3.2.4,59.95387154480206,
,,DE-EMPHASIZE,EMPHASIZE,"There is a live wire dangling from an electric pole

 There is an electrician at the top of the pole trying to gather the wire before it falls into a pool below, where a group of people are swimming","People in the swimming 
 pool: 13","Probability the wire
will be caught in time: 50%","Plan: Throw the rock, redirecting the wire and killing the pedestrians

Do nothing: The pedestrians will live, the people in the swimming pool have a chance of surviving if the wire is caught","The 9 pedestrians lived.

The ","The 9 pedestrians died.

The 13 people in the swimming pool were saved.",13,65, people in the swimming pool,"Pedestrians on the 
sidewalk: 9",pool.jpg,045:050,,,,,,,,,,,,,,,,,0,3,3,8,,,,,0,0,0,0,,,,,,,354.27975960006006,None,,,,,,,,,,,,,,,,,,,,,,,,,,,350.29120019986294,None,,,,,,,,,,,,,,,,,n,1.5062653000932187,344.7492940998636,None,346.2730491999537,None,344.7492940998636,None,344.7492940998636,None,344.7492940998636,None,344.7492940998636,None,344.7492940998636,None,344.7492940998636,None,1,001,2020_Feb_27_0954,MoralSRBinaryChoice,3.2.4,59.95387154480206,
,,DE-EMPHASIZE,EMPHASIZE,"There is a sizeable rock on the ground near you, which you can throw at the wire to redirect where it falls","People in the swimming 
pool: 9","Probability the wire
will be caught in time: 35%","Plan: Throw the rock, redirecting the wire and killing the pedestrians

Do nothing: The pedestrians will live, the people in the swimming pool have a chance of surviving if the wire is caught","The 4 pedestrians lived.

The ","The 4 pedestrians died.

The 9 people in the swimming pool were saved.",9,50, people in the swimming pool,"Pedestrians on the 
sidewalk: 4",pool.jpg,045:050,,,,,,,,,,,,,,,,,0,3,3,8,,,,,0,1,1,1,,,,,,,366.1727105998434,None,,,,,,,,,,,,,,,,,,,,,,,,,,,362.1851987000555,None,,,,,,,,,,,,,,,,,n,1.8496807001065463,356.29384800000116,None,358.16637880005874,None,356.29384800000116,None,356.29384800000116,None,356.29384800000116,None,356.29384800000116,None,356.29384800000116,None,356.29384800000116,None,1,001,2020_Feb_27_0954,MoralSRBinaryChoice,3.2.4,59.95387154480206,
,,DE-EMPHASIZE,EMPHASIZE,"  If you do this, the wire will land on a group of pedestrians on the sidewalk, electrocuting and killing them","People in the swimming 
pool: 9","Probability the wire
will be caught in time: 65%","Plan: Throw the rock, redirecting the wire and killing the pedestrians

Do nothing: The pedestrians will live, the people in the swimming pool have a chance of surviving if the wire is caught","The 3 pedestrians lived.

The ","The 3 pedestrians died.

The 9 people in the swimming pool were saved.",9,35, people in the swimming pool,"Pedestrians on the 
sidewalk: 3",pool.jpg,045:050,,,,,,,,,,,,,,,,,0,3,3,8,,,,,0,2,2,2,,,,,,,391.6942576000001,None,,,,,,,,,,,,,,,,,,,,,,,,,,,387.70179189997725,None,,,,,,,,,,,,,,,,,n,15.483907399931923,368.1796201998368,None,383.687303799903,None,368.1796201998368,None,368.1796201998368,None,368.1796201998368,None,368.1796201998368,None,368.1796201998368,None,368.1796201998368,None,1,001,2020_Feb_27_0954,MoralSRBinaryChoice,3.2.4,59.95387154480206,
,,DE-EMPHASIZE,EMPHASIZE," However, the electrician might be able to catch the wire before it falls","People in the swimming 
pool: 7","Probability the wire
will be caught in time: 35%","Plan: Throw the rock, redirecting the wire and killing the pedestrians

Do nothing: The pedestrians will live, the people in the swimming pool have a chance of surviving if the wire is caught","The 4 pedestrians lived.

The ","The 4 pedestrians died.

The 7 people in the swimming pool were saved.",7,65, people in the swimming pool,"Pedestrians on the 
sidewalk: 4",pool.jpg,045:050,,,,,,,,,,,,,,,,,0,3,3,8,,,,,0,3,3,3,,,,,,,403.2704159999266,None,,,,,,,,,,,,,,,,,,,,,,,,,,,399.28268129983917,None,,,,,,,,,,,,,,,,,n,1.5398621999192983,393.7074953999836,None,395.26344590005465,None,393.7074953999836,None,393.7074953999836,None,393.7074953999836,None,393.7074953999836,None,393.7074953999836,None,393.7074953999836,None,1,001,2020_Feb_27_0954,MoralSRBinaryChoice,3.2.4,59.95387154480206,
,,DE-EMPHASIZE,EMPHASIZE,"Consider each of the following scenarios and, for each one, determine what course of action you will take. ","People in the swimming 
pool: 6","Probability the wire
will be caught in time: 50%","Plan: Throw the rock, redirecting the wire and killing the pedestrians

Do nothing: The pedestrians will live, the people in the swimming pool have a chance of surviving if the wire is caught","The 3 pedestrians lived.

The ","The 3 pedestrians died.

The 6 people in the swimming pool were saved.",6,50, people in the swimming pool,"Pedestrians on the 
sidewalk: 3",pool.jpg,045:050,,,,,,,,,,,,,,,,,0,3,3,8,,,,,0,4,4,4,,,,,,,418.8330663999077,None,,,,,,,,,,,,,,,,,,,,,,,,,,,414.84223549999297,None,,,,,,,,,,,,,,,,,n,5.513936700066552,405.28551359986886,None,410.82674170006067,None,405.28551359986886,None,405.28551359986886,None,405.28551359986886,None,405.28551359986886,None,405.28551359986886,None,405.28551359986886,None,1,001,2020_Feb_27_0954,MoralSRBinaryChoice,3.2.4,59.95387154480206,
,,DE-EMPHASIZE,EMPHASIZE,,,,,,,,,,,,045:050,,,,,,,,,,,,,,,,,0,3,3,8,,,,,,,,,,,,,,,,,,,,,,,,,,,,,,,,,,,,,,,,,,,,,,,,,,,,,,,,,,,,,,,,,,,,,,,,,,,,,,,1,001,2020_Feb_27_0954,MoralSRBinaryChoice,3.2.4,59.95387154480206,
,,DE-EMPHASIZE,EMPHASIZE," There has been an accident in the basement of an office building

 A pipe has broken and is releasing a lethal gas into the building's ventilation system",Workers in Room A: 5,Probability of escape: 35%,"Plan: Hit the button to divert the gas to Room B, killing the workers there

Do nothing: The workers in Room B will live, the workers in Room A have a chance of escaping","The 3 workers in Room B lived.

The ","The 3 workers in Room B died. 

The 5 workers in Room A were saved.",5,50, workers in Room A,Workers in Room B: 3,office.jpg,005:0010,,,,,,,,,,,,,,,,,0,4,4,0,0,0,0,0,,,,,,,,,,,420.83483699988574,None,,,,,,,,,,,,,,,,,,,,,,,,,,,,,,,,,,,,,422.8677544000093,None,space,1.4836482000537217,422.8677544000093,None,422.8677544000093,None,,,,,,,,,,,,,,,,,,,1,001,2020_Feb_27_0954,MoralSRBinaryChoice,3.2.4,59.95387154480206,
,,DE-EMPHASIZE,EMPHASIZE," If nothing is done, the gas will travel upward to Room A and cause the death of all workers there

 You are the building manager",Workers in Room A: 10,Probability of escape: 50%,"Plan: Hit the button to divert the gas to Room B, killing the workers there

Do nothing: The workers in Room B will live, the workers in Room A have a chance of escaping","The 4 workers in Room B lived.

The ","The 4 workers in Room B died. 

The 10 workers in Room A were saved.",10,35, workers in Room A,Workers in Room B: 4,office.jpg,005:0010,,,,,,,,,,,,,,,,,0,4,4,0,0,1,1,1,,,,,,,,,,,,,,,,,,,,,,,,,,,,,,,,,,,,,,,,,,,,,,,,,424.38856930006295,None,space,0.33153830002993345,424.38856930006295,None,424.38856930006295,None,,,,,,,,,,,,,,,,,,,1,001,2020_Feb_27_0954,MoralSRBinaryChoice,3.2.4,59.95387154480206,
,,DE-EMPHASIZE,EMPHASIZE," You know that the only way to avoid the deaths of the workers in Room A is to block the main vent immediately by hitting a button that will close one of the vent doors

 You also know that if you close the vent door the gas will be diverted into a different room, Room B, and cause the death of the workers there",Workers in Room A: 6,Probability of escape: 65%,"Plan: Hit the button to divert the gas to Room B, killing the workers there

Do nothing: The workers in Room B will live, the workers in Room A have a chance of escaping","The 4 workers in Room B lived.

The ","The 4 workers in Room B died. 

The 6 workers in Room A were saved.",6,65, workers in Room A,Workers in Room B: 4,office.jpg,005:0010,,,,,,,,,,,,,,,,,0,4,4,0,0,2,2,2,,,,,,,,,,,,,,,,,,,,,,,,,,,,,,,,,,,,,,,,,,,,,,,,,424.7668298999779,None,space,1.0563701000064611,424.7668298999779,None,424.7668298999779,None,,,,,,,,,,,,,,,,,,,1,001,2020_Feb_27_0954,MoralSRBinaryChoice,3.2.4,59.95387154480206,
,,DE-EMPHASIZE,EMPHASIZE," You are also aware that there is a chance that the workers in Room A will escape before the gas reaches them

 This would be impossible for the workers in Room B",Workers in Room A: 12,Probability of escape: 50%,"Plan: Hit the button to divert the gas to Room B, killing the workers there

Do nothing: The workers in Room B will live, the workers in Room A have a chance of escaping","The 6 workers in Room B lived.

The ","The 6 workers in Room B died. 

The 12 workers in Room A were saved.",12,50, workers in Room A,Workers in Room B: 6,office.jpg,005:0010,,,,,,,,,,,,,,,,,0,4,4,0,0,3,3,3,,,,,,,,,,,,,,,,,,,,,,,,,,,,,,,,,,,,,,,,,,,,,,,,,425.85787399997935,None,space,0.3494732000399381,425.85787399997935,None,425.85787399997935,None,,,,,,,,,,,,,,,,,,,1,001,2020_Feb_27_0954,MoralSRBinaryChoice,3.2.4,59.95387154480206,
,,DE-EMPHASIZE,EMPHASIZE,"Consider each of the following scenarios and, for each one, determine what course of action you will take. ",Workers in Room A: 5,Probability of escape: 65%,"Plan: Hit the button to divert the gas to Room B, killing the workers there

Do nothing: The workers in Room B will live, the workers in Room A have a chance of escaping","The 4 workers in Room B lived.

The ","The 4 workers in Room B died. 

The 5 workers in Room A were saved.",5,65, workers in Room A,Workers in Room B: 4,office.jpg,005:0010,,,,,,,,,,,,,,,,,0,4,4,0,0,4,4,4,,,,,,,,,,,,,,,,,,,,,,,,,,,,,,,,,,,,,,,,,,,,,,,,,426.2362656998448,None,space,0.21108520007692277,426.2362656998448,None,426.2362656998448,None,,,,,,,,,,,,,,,,,,,1,001,2020_Feb_27_0954,MoralSRBinaryChoice,3.2.4,59.95387154480206,
,,DE-EMPHASIZE,EMPHASIZE," There has been an accident in the basement of an office building

 A pipe has broken and is releasing a lethal gas into the building's ventilation system",Workers in Room A: 5,Probability of escape: 35%,"Plan: Hit the button to divert the gas to Room B, killing the workers there

Do nothing: The workers in Room B will live, the workers in Room A have a chance of escaping","The 3 workers in Room B lived.

The ","The 3 workers in Room B died. 

The 5 workers in Room A were saved.",5,50, workers in Room A,Workers in Room B: 3,office.jpg,005:0010,,,,,,,,,,,,,,,,,0,4,4,0,,,,,0,0,0,0,,,,,,,451.67740980000235,None,,,,,,,,,,,,,,,,,,,,,,,,,,,447.6908723998349,None,,,,,,,,,,,,,,,,,n,15.129603600129485,428.5178839999717,None,443.6703782000113,None,428.5178839999717,None,428.5178839999717,None,428.5178839999717,None,428.5178839999717,None,428.5178839999717,None,428.5178839999717,None,1,001,2020_Feb_27_0954,MoralSRBinaryChoice,3.2.4,59.95387154480206,
,,DE-EMPHASIZE,EMPHASIZE," If nothing is done, the gas will travel upward to Room A and cause the death of all workers there

 You are the building manager",Workers in Room A: 10,Probability of escape: 50%,"Plan: Hit the button to divert the gas to Room B, killing the workers there

Do nothing: The workers in Room B will live, the workers in Room A have a chance of escaping","The 4 workers in Room B lived.

The ","The 4 workers in Room B died. 

The 10 workers in Room A were saved.",10,35, workers in Room A,Workers in Room B: 4,office.jpg,005:0010,,,,,,,,,,,,,,,,,0,4,4,0,,,,,0,1,1,1,,,,,,,469.89243489992805,None,,,,,,,,,,,,,,,,,,,,,,,,,,,465.90112709999084,None,,,,,,,,,,,,,,,,,n,8.168380700051785,453.68722769990563,None,461.8858501999639,None,453.68722769990563,None,453.68722769990563,None,453.68722769990563,None,453.68722769990563,None,453.68722769990563,None,453.68722769990563,None,1,001,2020_Feb_27_0954,MoralSRBinaryChoice,3.2.4,59.95387154480206,
,,DE-EMPHASIZE,EMPHASIZE," You know that the only way to avoid the deaths of the workers in Room A is to block the main vent immediately by hitting a button that will close one of the vent doors

 You also know that if you close the vent door the gas will be diverted into a different room, Room B, and cause the death of the workers there",Workers in Room A: 6,Probability of escape: 65%,"Plan: Hit the button to divert the gas to Room B, killing the workers there

Do nothing: The workers in Room B will live, the workers in Room A have a chance of escaping","The 4 workers in Room B lived.

The ","The 4 workers in Room B died. 

The 6 workers in Room A were saved.",6,65, workers in Room A,Workers in Room B: 4,office.jpg,005:0010,,,,,,,,,,,,,,,,,0,4,4,0,,,,,0,2,2,2,,,,,,,481.63554679998197,None,,,,,,,,,,,,,,,,,,,,,,,,,,,477.644555100007,None,,,,,,,,,,,,,,,,,n,1.7016525000799447,471.897985199932,None,473.62876200000755,None,471.897985199932,None,471.897985199932,None,471.897985199932,None,471.897985199932,None,471.897985199932,None,471.897985199932,None,1,001,2020_Feb_27_0954,MoralSRBinaryChoice,3.2.4,59.95387154480206,
,,DE-EMPHASIZE,EMPHASIZE," You are also aware that there is a chance that the workers in Room A will escape before the gas reaches them

 This would be impossible for the workers in Room B",Workers in Room A: 12,Probability of escape: 50%,"Plan: Hit the button to divert the gas to Room B, killing the workers there

Do nothing: The workers in Room B will live, the workers in Room A have a chance of escaping","The 6 workers in Room B lived.

The ","The 6 workers in Room B died. 

The 12 workers in Room A were saved.",12,50, workers in Room A,Workers in Room B: 6,office.jpg,005:0010,,,,,,,,,,,,,,,,,0,4,4,0,,,,,0,3,3,3,,,,,,,501.1848925999366,None,,,,,,,,,,,,,,,,,,,,,,,,,,,497.1949724999722,None,,,,,,,,,,,,,,,,,n,9.505733199883252,483.6456480000634,None,493.1780717000365,None,483.6456480000634,None,483.6456480000634,None,483.6456480000634,None,483.6456480000634,None,483.6456480000634,None,483.6456480000634,None,1,001,2020_Feb_27_0954,MoralSRBinaryChoice,3.2.4,59.95387154480206,
,,DE-EMPHASIZE,EMPHASIZE,"Consider each of the following scenarios and, for each one, determine what course of action you will take. ",Workers in Room A: 5,Probability of escape: 65%,"Plan: Hit the button to divert the gas to Room B, killing the workers there

Do nothing: The workers in Room B will live, the workers in Room A have a chance of escaping","The 4 workers in Room B lived.

The ","The 4 workers in Room B died. 

The 5 workers in Room A were saved.",5,65, workers in Room A,Workers in Room B: 4,office.jpg,005:0010,,,,,,,,,,,,,,,,,0,4,4,0,,,,,0,4,4,4,,,,,,,518.6329737999476,None,,,,,,,,,,,,,,,,,,,,,,,,,,,514.6413151000161,None,,,,,,,,,,,,,,,,,n,7.413985900115222,503.1941829000134,None,510.62651029997505,None,503.1941829000134,None,503.1941829000134,None,503.1941829000134,None,503.1941829000134,None,503.1941829000134,None,503.1941829000134,None,1,001,2020_Feb_27_0954,MoralSRBinaryChoice,3.2.4,59.95387154480206,
,,DE-EMPHASIZE,EMPHASIZE,,,,,,,,,,,,005:0010,,,,,,,,,,,,,,,,,0,4,4,0,,,,,,,,,,,,,,,,,,,,,,,,,,,,,,,,,,,,,,,,,,,,,,,,,,,,,,,,,,,,,,,,,,,,,,,,,,,,,,,1,001,2020_Feb_27_0954,MoralSRBinaryChoice,3.2.4,59.95387154480206,
,,EMPHASIZE,DE-EMPHASIZE," You are operating a crane in front of a tall bridge when an earthquake hits

 As a result of the earthquake, a gap has formed in the bridge, and a bus carrying a number of people is now partially hanging off of this gap in the bridge",People on bus: 7,"Probability bus will 
drive to safety: 35%","Plan: Move your crane to push the bus, certainly killing the people in the car

Do nothing: The people in the car will live, the people in the bus have a chance of surviving","The 2 people in the car lived.

The ","The 2 people in the car died. 

The 7 people on the bus were saved.",7,50, people on the bus,People in the car: 2,bridge.jpg,0010:015,,,,,,,,,,,,,,,,,0,5,5,1,0,0,0,0,,,,,,,,,,,520.6344860999379,None,,,,,,,,,,,,,,,,,,,,,,,,,,,,,,,,,,,,,522.6920219999738,None,space,3.099357800092548,522.6920219999738,None,522.6920219999738,None,,,,,,,,,,,,,,,,,,,1,001,2020_Feb_27_0954,MoralSRBinaryChoice,3.2.4,59.95387154480206,
,,EMPHASIZE,DE-EMPHASIZE," If nothing is done, the bus will soon plummet and all of these people will be killed

 You know that you can move your crane in a way to push the bus back onto the bridge, avoiding  the deaths of all the people on board",People on bus: 9,"Probability bus will 
drive to safety: 35%","Plan: Move your crane to push the bus, certainly killing the people in the car

Do nothing: The people in the car will live, the people in the bus have a chance of surviving","The 6 people in the car lived.

The ","The 6 people in the car died. 

The 9 people on the bus were saved.",9,65, people on the bus,People in the car: 6,bridge.jpg,0010:015,,,,,,,,,,,,,,,,,0,5,5,1,0,1,1,1,,,,,,,,,,,,,,,,,,,,,,,,,,,,,,,,,,,,,,,,,,,,,,,,,525.858000200009,None,space,0.1895870000589639,525.858000200009,None,525.858000200009,None,,,,,,,,,,,,,,,,,,,1,001,2020_Feb_27_0954,MoralSRBinaryChoice,3.2.4,59.95387154480206,
,,EMPHASIZE,DE-EMPHASIZE," However, you are also aware that in its current position your crane is supporting one small part of the bridge on which there is currently a single car

 If you move the crane, this part will certainly collapse and the people in that car will be killed",People on bus: 6,"Probability bus will 
drive to safety: 50%","Plan: Move your crane to push the bus, certainly killing the people in the car

Do nothing: The people in the car will live, the people in the bus have a chance of surviving","The 2 people in the car lived.

The ","The 2 people in the car died. 

The 6 people on the bus were saved.",6,35, people on the bus,People in the car: 2,bridge.jpg,0010:015,,,,,,,,,,,,,,,,,0,5,5,1,0,2,2,2,,,,,,,,,,,,,,,,,,,,,,,,,,,,,,,,,,,,,,,,,,,,,,,,,526.1129358999897,None,space,0.382577900076285,526.1129358999897,None,526.1129358999897,None,,,,,,,,,,,,,,,,,,,1,001,2020_Feb_27_0954,MoralSRBinaryChoice,3.2.4,59.95387154480206,
,,EMPHASIZE,DE-EMPHASIZE," You also know that there is a chance the bus will be able to drive back onto the bridge, preventing the deaths of everyone on board
 
 There is no chance that the car will be able to avoid falling if you move your crane ",People on bus: 10,"Probability bus will 
drive to safety: 65%","Plan: Move your crane to push the bus, certainly killing the people in the car

Do nothing: The people in the car will live, the people in the bus have a chance of surviving","The 7 people in the car lived.

The ","The 7 people in the car died. 

The 10 people on the bus were saved.",10,65, people on the bus,People in the car: 7,bridge.jpg,0010:015,,,,,,,,,,,,,,,,,0,5,5,1,0,3,3,3,,,,,,,,,,,,,,,,,,,,,,,,,,,,,,,,,,,,,,,,,,,,,,,,,526.5577393998392,None,space,0.35351070016622543,526.5577393998392,None,526.5577393998392,None,,,,,,,,,,,,,,,,,,,1,001,2020_Feb_27_0954,MoralSRBinaryChoice,3.2.4,59.95387154480206,
,,EMPHASIZE,DE-EMPHASIZE,"Consider each of the following scenarios and, for each one, determine what course of action you will take. ",People on bus: 7,"Probability bus will 
drive to safety: 35%","Plan: Move your crane to push the bus, certainly killing the people in the car

Do nothing: The people in the car will live, the people in the bus have a chance of surviving","The 4 people in the car lived.

The ","The 4 people in the car died. 

The 7 people on the bus were saved.",7,50, people on the bus,People in the car: 4,bridge.jpg,0010:015,,,,,,,,,,,,,,,,,0,5,5,1,0,4,4,4,,,,,,,,,,,,,,,,,,,,,,,,,,,,,,,,,,,,,,,,,,,,,,,,,526.9704332998954,None,space,0.5651211999356747,526.9704332998954,None,526.9704332998954,None,,,,,,,,,,,,,,,,,,,1,001,2020_Feb_27_0954,MoralSRBinaryChoice,3.2.4,59.95387154480206,
,,EMPHASIZE,DE-EMPHASIZE," You are operating a crane in front of a tall bridge when an earthquake hits

 As a result of the earthquake, a gap has formed in the bridge, and a bus carrying a number of people is now partially hanging off of this gap in the bridge",People on bus: 7,"Probability bus will 
drive to safety: 35%","Plan: Move your crane to push the bus, certainly killing the people in the car

Do nothing: The people in the car will live, the people in the bus have a chance of surviving","The 2 people in the car lived.

The ","The 2 people in the car died. 

The 7 people on the bus were saved.",7,50, people on the bus,People in the car: 2,bridge.jpg,0010:015,,,,,,,,,,,,,,,,,0,5,5,1,,,,,0,0,0,0,,,,,,,539.5333582998719,None,,,,,,,,,,,,,,,,,,,,,,,,,,,535.5453679999337,None,,,,,,,,,,,,,,,,,n,1.9049763998482376,529.5983573999256,None,531.5271943998523,None,529.5983573999256,None,529.5983573999256,None,529.5983573999256,None,529.5983573999256,None,529.5983573999256,None,529.5983573999256,None,1,001,2020_Feb_27_0954,MoralSRBinaryChoice,3.2.4,59.95387154480206,
,,EMPHASIZE,DE-EMPHASIZE," If nothing is done, the bus will soon plummet and all of these people will be killed

 You know that you can move your crane in a way to push the bus back onto the bridge, avoiding  the deaths of all the people on board",People on bus: 9,"Probability bus will 
drive to safety: 35%","Plan: Move your crane to push the bus, certainly killing the people in the car

Do nothing: The people in the car will live, the people in the bus have a chance of surviving","The 6 people in the car lived.

The ","The 6 people in the car died. 

The 9 people on the bus were saved.",9,65, people on the bus,People in the car: 6,bridge.jpg,0010:015,,,,,,,,,,,,,,,,,0,5,5,1,,,,,0,1,1,1,,,,,,,552.1273769999389,None,,,,,,,,,,,,,,,,,,,,,,,,,,,548.1411077000666,None,,,,,,,,,,,,,,,,,n,2.5570881001185626,541.5382876000367,None,544.1210761000402,None,541.5382876000367,None,541.5382876000367,None,541.5382876000367,None,541.5382876000367,None,541.5382876000367,None,541.5382876000367,None,1,001,2020_Feb_27_0954,MoralSRBinaryChoice,3.2.4,59.95387154480206,
,,EMPHASIZE,DE-EMPHASIZE," However, you are also aware that in its current position your crane is supporting one small part of the bridge on which there is currently a single car

 If you move the crane, this part will certainly collapse and the people in that car will be killed",People on bus: 6,"Probability bus will 
drive to safety: 50%","Plan: Move your crane to push the bus, certainly killing the people in the car

Do nothing: The people in the car will live, the people in the bus have a chance of surviving","The 2 people in the car lived.

The ","The 2 people in the car died. 

The 6 people on the bus were saved.",6,35, people on the bus,People in the car: 2,bridge.jpg,0010:015,,,,,,,,,,,,,,,,,0,5,5,1,,,,,0,2,2,2,,,,,,,565.021437099902,None,,,,,,,,,,,,,,,,,,,,,,,,,,,561.0298715999816,None,,,,,,,,,,,,,,,,,n,2.853101700078696,554.1385059999302,None,557.0148098999634,None,554.1385059999302,None,554.1385059999302,None,554.1385059999302,None,554.1385059999302,None,554.1385059999302,None,554.1385059999302,None,1,001,2020_Feb_27_0954,MoralSRBinaryChoice,3.2.4,59.95387154480206,
,,EMPHASIZE,DE-EMPHASIZE," You also know that there is a chance the bus will be able to drive back onto the bridge, preventing the deaths of everyone on board
 
 There is no chance that the car will be able to avoid falling if you move your crane ",People on bus: 10,"Probability bus will 
drive to safety: 65%","Plan: Move your crane to push the bus, certainly killing the people in the car

Do nothing: The people in the car will live, the people in the bus have a chance of surviving","The 7 people in the car lived.

The ","The 7 people in the car died. 

The 10 people on the bus were saved.",10,65, people on the bus,People in the car: 7,bridge.jpg,0010:015,,,,,,,,,,,,,,,,,0,5,5,1,,,,,0,3,3,3,,,,,,,578.1657982999459,None,,,,,,,,,,,,,,,,,,,,,,,,,,,574.1747222000267,None,,,,,,,,,,,,,,,,,n,3.1118670001160353,567.0315653998405,None,570.1593756999355,None,567.0315653998405,None,567.0315653998405,None,567.0315653998405,None,567.0315653998405,None,567.0315653998405,None,567.0315653998405,None,1,001,2020_Feb_27_0954,MoralSRBinaryChoice,3.2.4,59.95387154480206,
,,EMPHASIZE,DE-EMPHASIZE,"Consider each of the following scenarios and, for each one, determine what course of action you will take. ",People on bus: 7,"Probability bus will 
drive to safety: 35%","Plan: Move your crane to push the bus, certainly killing the people in the car

Do nothing: The people in the car will live, the people in the bus have a chance of surviving","The 4 people in the car lived.

The ","The 4 people in the car died. 

The 7 people on the bus were saved.",7,50, people on the bus,People in the car: 4,bridge.jpg,0010:015,,,,,,,,,,,,,,,,,0,5,5,1,,,,,0,4,4,4,,,,,,,600.2504642999265,None,,,,,,,,,,,,,,,,,,,,,,,,,,,596.2588130000513,None,,,,,,,,,,,,,,,,,n,12.047625000122935,580.1761121000163,None,592.2442212998867,None,580.1761121000163,None,580.1761121000163,None,580.1761121000163,None,580.1761121000163,None,580.1761121000163,None,580.1761121000163,None,1,001,2020_Feb_27_0954,MoralSRBinaryChoice,3.2.4,59.95387154480206,
,,EMPHASIZE,DE-EMPHASIZE,,,,,,,,,,,,0010:015,,,,,,,,,,,,,,,,,0,5,5,1,,,,,,,,,,,,,,,,,,,,,,,,,,,,,,,,,,,,,,,,,,,,,,,,,,,,,,,,,,,,,,,,,,,,,,,,,,,,,,,1,001,2020_Feb_27_0954,MoralSRBinaryChoice,3.2.4,59.95387154480206,
,,DE-EMPHASIZE,EMPHASIZE,"You are a worker on a large submarine

 The upper section of the submarine has a hole in it that is gradually letting water in","Passengers in the
submarine: 8","Probability the passengers will 
break open a window: 35%","Plan: Open the hatch, killing the crewmembers there

Do nothing: The crewmembers in the lower section will live, the passengers have a chance of escape","The 4 crewmembers lived.

The ","The 4 crewmembers died.

The 8 passengers were saved.",8,35, passengers,"Crewmembers in the 
lower section: 4",sub.jpg,035:040,,,,,,,,,,,,,,,,,0,6,6,6,0,0,0,0,,,,,,,,,,,602.2524725999683,None,,,,,,,,,,,,,,,,,,,,,,,,,,,,,,,,,,,,,604.2871133999433,None,space,2.192263700067997,604.2871133999433,None,604.2871133999433,None,,,,,,,,,,,,,,,,,,,1,001,2020_Feb_27_0954,MoralSRBinaryChoice,3.2.4,59.95387154480206,
,,DE-EMPHASIZE,EMPHASIZE," There is a group of passengers in the upper section of the submarine, who are beginning to drown

  The way out is through the lower section, where a group of crewmembers are working","Passengers in the
submarine: 6","Probability the passengers will 
break open a window: 50%","Plan: Open the hatch, killing the crewmembers there

Do nothing: The crewmembers in the lower section will live, the passengers have a chance of escape","The 5 crewmembers lived.

The  ","The 5 crewmembers died.

The 6 passengers were saved.",6,50, passengers,"Crewmembers in the 
lower section: 5",sub.jpg,035:040,,,,,,,,,,,,,,,,,0,6,6,6,0,1,1,1,,,,,,,,,,,,,,,,,,,,,,,,,,,,,,,,,,,,,,,,,,,,,,,,,606.526733599836,None,space,0.3368732000235468,606.526733599836,None,606.526733599836,None,,,,,,,,,,,,,,,,,,,1,001,2020_Feb_27_0954,MoralSRBinaryChoice,3.2.4,59.95387154480206,
,,DE-EMPHASIZE,EMPHASIZE,"  There is an emergency access hatch between the upper and lower sections of the ship

 You can press an emergency switch, which would open the hatch but in doing so would crush and kill the crewmembers who are working below it","Passengers in the
submarine: 7","Probability the passengers will 
break open a window: 50%","Plan: Open the hatch, killing the crewmembers there

Do nothing: The crewmembers in the lower section will live, the passengers have a chance of escape","The 4 crewmembers lived.

The ","The 4 crewmembers died.

The 7 passengers were saved.",7,50, passengers,"Crewmembers in the 
lower section: 4",sub.jpg,035:040,,,,,,,,,,,,,,,,,0,6,6,6,0,2,2,2,,,,,,,,,,,,,,,,,,,,,,,,,,,,,,,,,,,,,,,,,,,,,,,,,606.9124687998556,None,space,0.3509819000028074,606.9124687998556,None,606.9124687998556,None,,,,,,,,,,,,,,,,,,,1,001,2020_Feb_27_0954,MoralSRBinaryChoice,3.2.4,59.95387154480206,
,,DE-EMPHASIZE,EMPHASIZE," There is a chance that one of the passengers will break a window, allowing them to escape and swim to the surface","Passengers in the
submarine: 9","Probability the passengers will 
break open a window: 65%","Plan: Open the hatch, killing the crewmembers there

Do nothing: The crewmembers in the lower section will live, the passengers have a chance of escape","The 8 crewmembers lived.

The ","The 8 crewmembers died.

The 9 passengers were saved.",9,65, passengers,"Crewmembers in the 
lower section: 8",sub.jpg,035:040,,,,,,,,,,,,,,,,,0,6,6,6,0,3,3,3,,,,,,,,,,,,,,,,,,,,,,,,,,,,,,,,,,,,,,,,,,,,,,,,,607.306990499841,None,space,0.3086883001960814,607.306990499841,None,607.306990499841,None,,,,,,,,,,,,,,,,,,,1,001,2020_Feb_27_0954,MoralSRBinaryChoice,3.2.4,59.95387154480206,
,,DE-EMPHASIZE,EMPHASIZE,"Consider each of the following scenarios and, for each one, determine what course of action you will take. ","Passengers in the
submarine: 6","Probability the passengers will 
break open a window: 50%","Plan: Open the hatch, killing the crewmembers there

Do nothing: The crewmembers in the lower section will live, the passengers have a chance of escape","The 5 crewmembers lived.

The ","The 5 crewmembers died.

The 6 passengers were saved.",6,50, passengers,"Crewmembers in the 
lower section: 4",sub.jpg,035:040,,,,,,,,,,,,,,,,,0,6,6,6,0,4,4,4,,,,,,,,,,,,,,,,,,,,,,,,,,,,,,,,,,,,,,,,,,,,,,,,,607.6563118998893,None,space,0.34316770010627806,607.6563118998893,None,607.6563118998893,None,,,,,,,,,,,,,,,,,,,1,001,2020_Feb_27_0954,MoralSRBinaryChoice,3.2.4,59.95387154480206,
,,DE-EMPHASIZE,EMPHASIZE,"You are a worker on a large submarine

 The upper section of the submarine has a hole in it that is gradually letting water in","Passengers in the
submarine: 8","Probability the passengers will 
break open a window: 35%","Plan: Open the hatch, killing the crewmembers there

Do nothing: The crewmembers in the lower section will live, the passengers have a chance of escape","The 4 crewmembers lived.

The ","The 4 crewmembers died.

The 8 passengers were saved.",8,35, passengers,"Crewmembers in the 
lower section: 4",sub.jpg,035:040,,,,,,,,,,,,,,,,,0,6,6,6,,,,,0,0,0,0,,,,,,,619.0165543998592,None,,,,,,,,,,,,,,,,,,,,,,,,,,,615.024831000017,None,,,,,,,,,,,,,,,,,n,0.9214739999733865,610.069912499981,None,611.0096101998352,None,610.069912499981,None,610.069912499981,None,610.069912499981,None,610.069912499981,None,610.069912499981,None,610.069912499981,None,1,001,2020_Feb_27_0954,MoralSRBinaryChoice,3.2.4,59.95387154480206,
,,DE-EMPHASIZE,EMPHASIZE," There is a group of passengers in the upper section of the submarine, who are beginning to drown

  The way out is through the lower section, where a group of crewmembers are working","Passengers in the
submarine: 6","Probability the passengers will 
break open a window: 50%","Plan: Open the hatch, killing the crewmembers there

Do nothing: The crewmembers in the lower section will live, the passengers have a chance of escape","The 5 crewmembers lived.

The  ","The 5 crewmembers died.

The 6 passengers were saved.",6,50, passengers,"Crewmembers in the 
lower section: 5",sub.jpg,035:040,,,,,,,,,,,,,,,,,0,6,6,6,,,,,0,1,1,1,,,,,,,630.7257519999985,None,,,,,,,,,,,,,,,,,,,,,,,,,,,626.7311922998633,None,,,,,,,,,,,,,,,,,n,1.6718719000928104,621.0316101999488,None,622.7190803999547,None,621.0316101999488,None,621.0316101999488,None,621.0316101999488,None,621.0316101999488,None,621.0316101999488,None,621.0316101999488,None,1,001,2020_Feb_27_0954,MoralSRBinaryChoice,3.2.4,59.95387154480206,
,,DE-EMPHASIZE,EMPHASIZE,"  There is an emergency access hatch between the upper and lower sections of the ship

 You can press an emergency switch, which would open the hatch but in doing so would crush and kill the crewmembers who are working below it","Passengers in the
submarine: 7","Probability the passengers will 
break open a window: 50%","Plan: Open the hatch, killing the crewmembers there

Do nothing: The crewmembers in the lower section will live, the passengers have a chance of escape","The 4 crewmembers lived.

The ","The 4 crewmembers died.

The 7 passengers were saved.",7,50, passengers,"Crewmembers in the 
lower section: 4",sub.jpg,035:040,,,,,,,,,,,,,,,,,0,6,6,6,,,,,0,2,2,2,,,,,,,643.5030936999246,None,,,,,,,,,,,,,,,,,,,,,,,,,,,639.5102784000337,None,,,,,,,,,,,,,,,,,n,2.7387859001755714,632.7326934000012,None,635.4970936998725,None,632.7326934000012,None,632.7326934000012,None,632.7326934000012,None,632.7326934000012,None,632.7326934000012,None,632.7326934000012,None,1,001,2020_Feb_27_0954,MoralSRBinaryChoice,3.2.4,59.95387154480206,
,,DE-EMPHASIZE,EMPHASIZE," There is a chance that one of the passengers will break a window, allowing them to escape and swim to the surface","Passengers in the
submarine: 9","Probability the passengers will 
break open a window: 65%","Plan: Open the hatch, killing the crewmembers there

Do nothing: The crewmembers in the lower section will live, the passengers have a chance of escape","The 8 crewmembers lived.

The ","The 8 crewmembers died.

The 9 passengers were saved.",9,65, passengers,"Crewmembers in the 
lower section: 8",sub.jpg,035:040,,,,,,,,,,,,,,,,,0,6,6,6,,,,,0,3,3,3,,,,,,,673.7119930000044,None,,,,,,,,,,,,,,,,,,,,,,,,,,,669.7170074998867,None,,,,,,,,,,,,,,,,,n,20.16133619984612,645.5180854999926,None,665.7052743998356,None,645.5180854999926,None,645.5180854999926,None,645.5180854999926,None,645.5180854999926,None,645.5180854999926,None,645.5180854999926,None,1,001,2020_Feb_27_0954,MoralSRBinaryChoice,3.2.4,59.95387154480206,
,,DE-EMPHASIZE,EMPHASIZE,"Consider each of the following scenarios and, for each one, determine what course of action you will take. ","Passengers in the
submarine: 6","Probability the passengers will 
break open a window: 50%","Plan: Open the hatch, killing the crewmembers there

Do nothing: The crewmembers in the lower section will live, the passengers have a chance of escape","The 5 crewmembers lived.

The ","The 5 crewmembers died.

The 6 passengers were saved.",6,50, passengers,"Crewmembers in the 
lower section: 4",sub.jpg,035:040,,,,,,,,,,,,,,,,,0,6,6,6,,,,,0,4,4,4,,,,,,,685.2042980999686,None,,,,,,,,,,,,,,,,,,,,,,,,,,,681.2120560000185,None,,,,,,,,,,,,,,,,,n,1.4408287999685854,675.7264884000178,None,677.1976661998779,None,675.7264884000178,None,675.7264884000178,None,675.7264884000178,None,675.7264884000178,None,675.7264884000178,None,675.7264884000178,None,1,001,2020_Feb_27_0954,MoralSRBinaryChoice,3.2.4,59.95387154480206,
,,DE-EMPHASIZE,EMPHASIZE,,,,,,,,,,,,035:040,,,,,,,,,,,,,,,,,0,6,6,6,,,,,,,,,,,,,,,,,,,,,,,,,,,,,,,,,,,,,,,,,,,,,,,,,,,,,,,,,,,,,,,,,,,,,,,,,,,,,,,1,001,2020_Feb_27_0954,MoralSRBinaryChoice,3.2.4,59.95387154480206,
,,DE-EMPHASIZE,EMPHASIZE," You are driving a rescue boat in the ocean, heading east towards a group of drowning people

 You receive a distress signal informing you that a small boat has capsized in the opposite direction",People drowning in the west: 11,"Probability of alternate 
rescue boat reaching them: 50%","Plan: Change your course to head towards the people in the west, leaving the people in the east to die

Do nothing: The group in the east will live, the group in the west has a chance of surviving","The 5 people in the east lived.

The ","The 5 people in the east died.

The 11 people in the west were saved.",11,50, people in the west,"People drowning in 
the east: 5",boat.jpg,015:020,,,,,,,,,,,,,,,,,0,7,7,2,0,0,0,0,,,,,,,,,,,687.2061230000108,None,,,,,,,,,,,,,,,,,,,,,,,,,,,,,,,,,,,,,689.2419322999194,None,space,2.325377899920568,689.2419322999194,None,689.2419322999194,None,,,,,,,,,,,,,,,,,,,1,001,2020_Feb_27_0954,MoralSRBinaryChoice,3.2.4,59.95387154480206,
,,DE-EMPHASIZE,EMPHASIZE," All of the people aboard the capsized boat are now drowning

 You know that if you immediately change course and go full speed, bearing west, you will reach these people in time to save them",People drowning in the west: 10,"Probability of alternate 
rescue boat reaching them: 35%","Plan: Change your course to head towards the people in the west, leaving the people in the east to die

Do nothing: The group in the east will live, the group in the west has a chance of surviving","The 6 people in the east lived.

The ","The 6 people in the east died.

The 10 people in the west were saved.",10,65, people in the west,"People drowning in 
the east: 6",boat.jpg,015:020,,,,,,,,,,,,,,,,,0,7,7,2,0,1,1,1,,,,,,,,,,,,,,,,,,,,,,,,,,,,,,,,,,,,,,,,,,,,,,,,,691.6161640000064,None,space,0.415276899933815,691.6161640000064,None,691.6161640000064,None,,,,,,,,,,,,,,,,,,,1,001,2020_Feb_27_0954,MoralSRBinaryChoice,3.2.4,59.95387154480206,
,,DE-EMPHASIZE,EMPHASIZE," However, if you do this, the people drowning in the east will certainly die

 If you do nothing and hold your course, the people in the east will be saved, but you will not reach the people to the west in time to save them",People drowning in the west: 8,"Probability of alternate 
rescue boat reaching them: 50%","Plan: Change your course to head towards the people in the west, leaving the people in the east to die

Do nothing: The group in the east will live, the group in the west has a chance of surviving","The 3 people in the east lived.

The ","The 3 people in the east died.

The 8 people in the west were saved.",8,50, people in the west,"People drowning in 
the east: 3",boat.jpg,015:020,,,,,,,,,,,,,,,,,0,7,7,2,0,2,2,2,,,,,,,,,,,,,,,,,,,,,,,,,,,,,,,,,,,,,,,,,,,,,,,,,692.0839436999522,None,space,0.3314213000703603,692.0839436999522,None,692.0839436999522,None,,,,,,,,,,,,,,,,,,,1,001,2020_Feb_27_0954,MoralSRBinaryChoice,3.2.4,59.95387154480206,
,,DE-EMPHASIZE,EMPHASIZE," You also know that the only other rescue boat in the area is much further to the west, so it would be unable to reach the people in the east

 But there is a chance the rescue boat will reach the group drowning to the west",People drowning in the west: 8,"Probability of alternate 
rescue boat reaching them: 65%","Plan: Change your course to head towards the people in the west, leaving the people in the east to die

Do nothing: The group in the east will live, the group in the west has a chance of surviving","The 2 people in the east lived.

The ","The 2 people in the east died.

The 8 people in the west were saved.",8,35, people in the west,"People drowning in 
the east: 2",boat.jpg,015:020,,,,,,,,,,,,,,,,,0,7,7,2,0,3,3,3,,,,,,,,,,,,,,,,,,,,,,,,,,,,,,,,,,,,,,,,,,,,,,,,,692.4659752000589,None,space,0.28552070003934205,692.4659752000589,None,692.4659752000589,None,,,,,,,,,,,,,,,,,,,1,001,2020_Feb_27_0954,MoralSRBinaryChoice,3.2.4,59.95387154480206,
,,DE-EMPHASIZE,EMPHASIZE,"Consider each of the following scenarios and, for each one, determine what course of action you will take. ",People drowning in the west: 12,"Probability of alternate 
rescue boat reaching them: 50%","Plan: Change your course to head towards the people in the west, leaving the people in the east to die

Do nothing: The group in the east will live, the group in the west has a chance of surviving","The 6 people in the east lived.

The ","The 6 people in the east died.

The 12 people in the west were saved.",12,50, people in the west,"People drowning in 
the east: 6",boat.jpg,015:020,,,,,,,,,,,,,,,,,0,7,7,2,0,4,4,4,,,,,,,,,,,,,,,,,,,,,,,,,,,,,,,,,,,,,,,,,,,,,,,,,692.7936157998629,None,space,0.3097709999419749,692.7936157998629,None,692.7936157998629,None,,,,,,,,,,,,,,,,,,,1,001,2020_Feb_27_0954,MoralSRBinaryChoice,3.2.4,59.95387154480206,
,,DE-EMPHASIZE,EMPHASIZE," You are driving a rescue boat in the ocean, heading east towards a group of drowning people

 You receive a distress signal informing you that a small boat has capsized in the opposite direction",People drowning in the west: 11,"Probability of alternate 
rescue boat reaching them: 50%","Plan: Change your course to head towards the people in the west, leaving the people in the east to die

Do nothing: The group in the east will live, the group in the west has a chance of surviving","The 5 people in the east lived.

The ","The 5 people in the east died.

The 11 people in the west were saved.",11,50, people in the west,"People drowning in 
the east: 5",boat.jpg,015:020,,,,,,,,,,,,,,,,,0,7,7,2,,,,,0,0,0,0,,,,,,,706.2553129000589,None,,,,,,,,,,,,,,,,,,,,,,,,,,,702.2643960998394,None,,,,,,,,,,,,,,,,,n,3.049101199954748,695.1743689000141,None,698.2494699000381,None,695.1743689000141,None,695.1743689000141,None,695.1743689000141,None,695.1743689000141,None,695.1743689000141,None,695.1743689000141,None,1,001,2020_Feb_27_0954,MoralSRBinaryChoice,3.2.4,59.95387154480206,
,,DE-EMPHASIZE,EMPHASIZE," All of the people aboard the capsized boat are now drowning

 You know that if you immediately change course and go full speed, bearing west, you will reach these people in time to save them",People drowning in the west: 10,"Probability of alternate 
rescue boat reaching them: 35%","Plan: Change your course to head towards the people in the west, leaving the people in the east to die

Do nothing: The group in the east will live, the group in the west has a chance of surviving","The 6 people in the east lived.

The ","The 6 people in the east died.

The 10 people in the west were saved.",10,65, people in the west,"People drowning in 
the east: 6",boat.jpg,015:020,,,,,,,,,,,,,,,,,0,7,7,2,,,,,0,1,1,1,,,,,,,718.398830199847,None,,,,,,,,,,,,,,,,,,,,,,,,,,,714.407721000025,None,,,,,,,,,,,,,,,,,n,2.0977453000377864,708.2698353000451,None,710.392689100001,None,708.2698353000451,None,708.2698353000451,None,708.2698353000451,None,708.2698353000451,None,708.2698353000451,None,708.2698353000451,None,1,001,2020_Feb_27_0954,MoralSRBinaryChoice,3.2.4,59.95387154480206,
,,DE-EMPHASIZE,EMPHASIZE," However, if you do this, the people drowning in the east will certainly die

 If you do nothing and hold your course, the people in the east will be saved, but you will not reach the people to the west in time to save them",People drowning in the west: 8,"Probability of alternate 
rescue boat reaching them: 50%","Plan: Change your course to head towards the people in the west, leaving the people in the east to die

Do nothing: The group in the east will live, the group in the west has a chance of surviving","The 3 people in the east lived.

The ","The 3 people in the east died.

The 8 people in the west were saved.",8,50, people in the west,"People drowning in 
the east: 3",boat.jpg,015:020,,,,,,,,,,,,,,,,,0,7,7,2,,,,,0,2,2,2,,,,,,,729.8919563998934,None,,,,,,,,,,,,,,,,,,,,,,,,,,,725.901703099953,None,,,,,,,,,,,,,,,,,n,1.4424203999806195,720.4130839998834,None,721.8851268000435,None,720.4130839998834,None,720.4130839998834,None,720.4130839998834,None,720.4130839998834,None,720.4130839998834,None,720.4130839998834,None,1,001,2020_Feb_27_0954,MoralSRBinaryChoice,3.2.4,59.95387154480206,
,,DE-EMPHASIZE,EMPHASIZE," You also know that the only other rescue boat in the area is much further to the west, so it would be unable to reach the people in the east

 But there is a chance the rescue boat will reach the group drowning to the west",People drowning in the west: 8,"Probability of alternate 
rescue boat reaching them: 65%","Plan: Change your course to head towards the people in the west, leaving the people in the east to die

Do nothing: The group in the east will live, the group in the west has a chance of surviving","The 2 people in the east lived.

The ","The 2 people in the east died.

The 8 people in the west were saved.",8,35, people in the west,"People drowning in 
the east: 2",boat.jpg,015:020,,,,,,,,,,,,,,,,,0,7,7,2,,,,,0,3,3,3,,,,,,,748.940834299894,None,,,,,,,,,,,,,,,,,,,,,,,,,,,744.95011970005,None,,,,,,,,,,,,,,,,,n,9.011012199800462,731.90039970004,None,740.9345108000562,None,731.90039970004,None,731.90039970004,None,731.90039970004,None,731.90039970004,None,731.90039970004,None,731.90039970004,None,1,001,2020_Feb_27_0954,MoralSRBinaryChoice,3.2.4,59.95387154480206,
,,DE-EMPHASIZE,EMPHASIZE,"Consider each of the following scenarios and, for each one, determine what course of action you will take. ",People drowning in the west: 12,"Probability of alternate 
rescue boat reaching them: 50%","Plan: Change your course to head towards the people in the west, leaving the people in the east to die

Do nothing: The group in the east will live, the group in the west has a chance of surviving","The 6 people in the east lived.

The ","The 6 people in the east died.

The 12 people in the west were saved.",12,50, people in the west,"People drowning in 
