Instructions,rows,CueInstructions1,CueInstructions2,PracticeDilemmas,PracticeLeftText,PracticeRightText,Reminder,ChoseNothing,ChosePlan,GroupNumber,GroupProb,Noun,sureGroupText,rows2,IntroLoop.thisRepN,IntroLoop.thisTrialN,IntroLoop.thisN,IntroLoop.thisIndex,PracticeLoop.thisRepN,PracticeLoop.thisTrialN,PracticeLoop.thisN,PracticeLoop.thisIndex,PracticeQs.thisRepN,PracticeQs.thisTrialN,PracticeQs.thisN,PracticeQs.thisIndex,practiceAs.thisRepN,practiceAs.thisTrialN,practiceAs.thisN,practiceAs.thisIndex,MainLoop.thisRepN,MainLoop.thisTrialN,MainLoop.thisN,MainLoop.thisIndex,MainQs.thisRepN,MainQs.thisTrialN,MainQs.thisN,MainQs.thisIndex,trials_2.thisRepN,trials_2.thisTrialN,trials_2.thisN,trials_2.thisIndex,InstText.started,InstText.stopped,space.keys,space.rt,space.started,space.stopped,isi.started,isi.stopped,practiceQs.started,practiceQs.stopped,space1.keys,space1.rt,space1.started,space1.stopped,cue.started,cue.stopped,key_resp.keys,key_resp.rt,key_resp.started,key_resp.stopped,conBlank.started,conBlank.stopped,RemText.started,RemText.stopped,leftText.started,leftText.stopped,rightText.started,rightText.stopped,Yes.started,Yes.stopped,No.started,No.stopped,Question.started,Question.stopped,sureGroup.started,sureGroup.stopped,FeedbackVar.started,FeedbackVar.stopped,isi_2.started,isi_2.stopped,instructions2.started,instructions2.stopped,key_resp_4.keys,key_resp_4.rt,key_resp_4.started,key_resp_4.stopped,text.started,text.stopped,key_resp_2.keys,key_resp_2.rt,key_resp_2.started,key_resp_2.stopped,key_resp_3.keys,key_resp_3.rt,key_resp_3.started,key_resp_3.stopped,conBlank2.started,conBlank2.stopped,RemText2.started,RemText2.stopped,leftText2.started,leftText2.stopped,rightText2.started,rightText2.stopped,yes2.started,yes2.stopped,no2.started,no2.stopped,Question2.started,Question2.stopped,text_2.started,text_2.stopped,participant,session,date,expName,psychopyVersion,frameRate,
"In this study you will be asked to evaluate a number of moral dilemmas under various conditions. 

You will be presented with 10 different scenario contexts and will respond to 10 conditions for each one.

For each scenario, you will proceed through four screens. The first three screens will start to describe a situation that you are hypothetically faced with and an action that you could perform in response to that situation. 

When you are done reading each screen, you can press SPACE to move on to the next one.

However, please try your best to get the fullest understanding of the scenario as described thus far before moving on to the next screen.",,,,,,,,,,,,,,,0,0,0,0,,,,,,,,,,,,,,,,,,,,,,,,,11.939683399999922,None,space,2.4656778999997186,11.939683399999922,None,,,,,,,,,,,,,,,,,,,,,,,,,,,,,,,,,,,,,,,,,,,,,,,,,,,,,,,,,,,,,,,,,,,2,001,2019_Nov_21_1218,MoralSRBinaryChoice,3.2.4,59.82492832971001,
"The scenario description will include all the information you need to make your decision EXCEPT that it will not explicitly state the values for two features of the dilemma:

a) a number of people involved in part of the scenario, and 

b) a likelihood that something will happen

You will be evaluating this scenario given a number of variations of these features.

The fourth and final screen will provide you with the prompt that you will be answering for each of these variations - namely, whether or not it is morally acceptable for you to perform the action in question.",,,,,,,,,,,,,,,0,1,1,1,,,,,,,,,,,,,,,,,,,,,,,,,14.512846899999204,None,space,0.08457549999911862,14.512846899999204,None,,,,,,,,,,,,,,,,,,,,,,,,,,,,,,,,,,,,,,,,,,,,,,,,,,,,,,,,,,,,,,,,,,,2,001,2019_Nov_21_1218,MoralSRBinaryChoice,3.2.4,59.82492832971001,
"After you have understood the scenario context and the question you will be answering, you can press SPACE to move on to the individual trials that will fill these gaps for you in the scenario.

Before you do so, please try your best to hold in mind what the action is that you will be evaluating across trials, as you will not be reminded of this after this screen.

First, you will see a "+" in the middle of the screen. Any time that this is up, all you need to do is fixate on the "+" and prepare to respond to the next trial. 

Next, you will see text appear indicating the missing information. You should then evaluate the action in question in the context of these values given, and make a judgment of its moral acceptibility.

You will then indicate the course of action you would like to take in each scenario; by pressing either 'y' on your keyboard to indicate 'Yes', or 'n' to indicate 'No.'
",,,,,,,,,,,,,,,0,2,2,2,,,,,,,,,,,,,,,,,,,,,,,,,14.745418900000004,None,space,0.011945700000069337,14.745418900000004,None,,,,,,,,,,,,,,,,,,,,,,,,,,,,,,,,,,,,,,,,,,,,,,,,,,,,,,,,,,,,,,,,,,,2,001,2019_Nov_21_1218,MoralSRBinaryChoice,3.2.4,59.82492832971001,
"After you answer you will again see a "+" in the middle of the screen, followed by the next trial. This will occur for 10 different variations of each scenario. 

It is important that you try your best to judge each trial in isolation, and avoid consideration of past responses for the current scenario or past scenarios.

You will only have 10 seconds to respond to each variation. If the "+" appears before you have responded, that means you are out of time. If this happens, do not attempt to respond. Simply look at the "+" and wait for the next trial. 

Once you have pressed a button there is no way to go back to the previous screen. If you press the wrong button or if you press a button too soon, don't worry.",,,,,,,,,,,,,,,0,3,3,3,,,,,,,,,,,,,,,,,,,,,,,,,14.874482799999896,None,space,0.04295579999961774,14.874482799999896,None,,,,,,,,,,,,,,,,,,,,,,,,,,,,,,,,,,,,,,,,,,,,,,,,,,,,,,,,,,,,,,,,,,,2,001,2019_Nov_21_1218,MoralSRBinaryChoice,3.2.4,59.82492832971001,
"Moral judgments can be difficult to make, and we understand that people sometimes change their minds about moral questions or feel conflicted about the answers they've given. Don't think of your answers as "written in stone." All we want from you is a thoughtful first response.

While we want your answers to be thoughtful, you may find that in some cases the right answer seems immediately obvious. If that happens, it's okay to answer quickly. There are no trick questions, and in every case we have done our best to make the relevant information as clear as possible. 

Note, however, that no two scenarios are the same, although many are similar to each other. To answer a question properly you will have to read it carefully because it will always be different in some way from the questions you have already answered. ",,,,,,,,,,,,,,,0,4,4,4,,,,,,,,,,,,,,,,,,,,,,,,,15.047515000000203,None,space,0.013837700000294717,15.047515000000203,None,,,,,,,,,,,,,,,,,,,,,,,,,,,,,,,,,,,,,,,,,,,,,,,,,,,,,,,,,,,,,,,,,,,2,001,2019_Nov_21_1218,MoralSRBinaryChoice,3.2.4,59.82492832971001,
"In some cases, you might feel that the situation we've described is not realistic. For example, it might say that if you do X, then Y will happen, and you might think that this is not realistic, that Y might not necessarily happen if you do X. If you find yourself having these sorts of doubts, you should suspend disbelief and assume that the situation really is the way it's described, even if it doesn't seem realistic to you.

Likewise, you may feel that you need more information than is provided about the situation before you can give your answer. If this happens, you should make your best guess about what you think the situation is like without making any unneccessary assumptions. 

For example, if it doesn't say that the other person in the situation is related to you, then you should assume that you and the other person are unrelated. ",,,,,,,,,,,,,,,0,5,5,5,,,,,,,,,,,,,,,,,,,,,,,,,15.194631300000765,None,space,0.3468833999995695,15.194631300000765,None,,,,,,,,,,,,,,,,,,,,,,,,,,,,,,,,,,,,,,,,,,,,,,,,,,,,,,,,,,,,,,,,,,,2,001,2019_Nov_21_1218,MoralSRBinaryChoice,3.2.4,59.82492832971001,
"When you are done reading this screen you will begin two practice scenarios. 

Once again, you can press SPACE to advance through the first four screens. Then you will encounter a number of trials which you will rate on a 1-7 scale, and press ENTER to submit your rating. 

While you will see 10 such trials for each scenario in the actual experiment, you will only respond to 4 variations of each practice scenario.

Furthermore, when the actual experiment begins there will be an additional 10 seconds of fixation before the scenario text comes up, while the scanner warms up. Please begin reading as usual when the text comes up.

Press SPACE to begin the practice trials!
",,,,,,,,,,,,,,,0,6,6,6,,,,,,,,,,,,,,,,,,,,,,,,,15.65970390000075,None,space,0.5699727999999595,15.65970390000075,None,,,,,,,,,,,,,,,,,,,,,,,,,,,,,,,,,,,,,,,,,,,,,,,,,,,,,,,,,,,,,,,,,,,2,001,2019_Nov_21_1218,MoralSRBinaryChoice,3.2.4,59.82492832971001,
,000:005,EMPHASIZE,DE-EMPHASIZE,"• You are the head of a safety crew that has been alerted about a group of skydivers that is wearing defective parachutes and is currently in a freefall 

• You've arrived in time to see that a group of divers is holding onto one another and will fall to their death a few feet to your right unless your crew's trampoline is moved beneath them",Skydivers on right: 6,"Probability of 
parachute opening: 35% ","Plan: Direct your crew to the right, repositioning the trampoline and leaving the skydivers on the left to die 

Do nothing: The skydivers on the left will live, the group on the right  has a chance of surviving","The 3 skydivers on the left were saved.
 
The ","The 3 skydivers on the left died.

The 6 skydivers on the right were saved.",6,35, skydivers on the right,Skydivers on the left: 3,,,,,,0,0,0,0,0,0,0,0,,,,,,,,,,,,,,,,,,,,,,,16.252461899999616,None,18.311084900000424,None,space,4.542129400000704,18.311084900000424,None,,,,,,,,,,,,,,,,,,,,,,,,,,,,,,,,,,,,,,,,,,,,,,,,,,,,,,,,,,,2,001,2019_Nov_21_1218,MoralSRBinaryChoice,3.2.4,59.82492832971001,
,000:005,EMPHASIZE,DE-EMPHASIZE,"• Your crew sees a smaller group of divers apart from the rest who are much closer to reaching the ground, and instinctively moves a few feet to the left to catch them

• You know that there won't be enough time to reach the group on the right if you wait to catch the group on the left",Skydivers on right: 9,"Probability of 
parachute opening: 50% ","Plan: Direct your crew to the right, repositioning the trampoline and leaving the skydivers on the left to die 

Do nothing: The skydivers on the left will live, the group on the right  has a chance of surviving","The 4 skydivers on the left were saved.
 
The ","The 4 skydivers on the left died.

The 9 skydivers on the right were saved.",9,50, skydivers on the right,Skydivers on the left: 4,,,,,,0,0,0,0,0,1,1,1,,,,,,,,,,,,,,,,,,,,,,,,,22.907642500000293,None,space,0.7937946999991254,22.907642500000293,None,,,,,,,,,,,,,,,,,,,,,,,,,,,,,,,,,,,,,,,,,,,,,,,,,,,,,,,,,,,2,001,2019_Nov_21_1218,MoralSRBinaryChoice,3.2.4,59.82492832971001,
,000:005,EMPHASIZE,DE-EMPHASIZE,"• If nothing is done, the safety crew will catch the divers to the left, avoiding their death, but the separate group of divers will land on the ground, causing their deaths

• You can re-direct your crew to the right, preventing the death of the group, but the divers on the left won't be caught",Skydivers on right: 5,"Probability of 
parachute opening: 50% ","Plan: Direct your crew to the right, repositioning the trampoline and leaving the skydivers on the left to die 

Do nothing: The skydivers on the left will live, the group on the right  has a chance of surviving","The 2 skydivers on the left were saved.
 
The ","The 2 skydivers on the left died.

The 5 skydivers on the right were saved.",5,50, skydivers on the right,Skydivers on the left: 2,,,,,,0,0,0,0,0,2,2,2,,,,,,,,,,,,,,,,,,,,,,,,,23.76742379999996,None,space,4.910322599998835,23.76742379999996,None,,,,,,,,,,,,,,,,,,,,,,,,,,,,,,,,,,,,,,,,,,,,,,,,,,,,,,,,,,,2,001,2019_Nov_21_1218,MoralSRBinaryChoice,3.2.4,59.82492832971001,
,000:005,EMPHASIZE,DE-EMPHASIZE,"• You also know that there is a chance that one of the parachutes of the group will still open in time to prevent all of their deaths

• There is no chance that the parachute will open for the one diver, given how close he is to the ground",Skydivers on right: 4,"Probability of 
parachute opening: 65% ","Plan: Direct your crew to the right, repositioning the trampoline and leaving the skydivers on the left to die 

Do nothing: The skydivers on the left will live, the group on the right  has a chance of surviving","The 3 skydivers on the left were saved.
 
The ","The 3 skydivers on the left died.

The 4 skydivers on the right were saved.",4,65, skydivers on the right,Skydivers on the left: 3,,,,,,0,0,0,0,0,3,3,3,,,,,,,,,,,,,,,,,,,,,,,,,28.724372599999697,None,space,1.0251547000007122,28.724372599999697,None,,,,,,,,,,,,,,,,,,,,,,,,,,,,,,,,,,,,,,,,,,,,,,,,,,,,,,,,,,,2,001,2019_Nov_21_1218,MoralSRBinaryChoice,3.2.4,59.82492832971001,
,000:005,EMPHASIZE,DE-EMPHASIZE,"Consider each of the following scenarios and, for each one, determine what course of action you will take.",Skydivers on right: 8,"Probability of 
parachute opening: 65% ","Plan: Direct your crew to the right, repositioning the trampoline and leaving the skydivers on the left to die 

Do nothing: The skydivers on the left will live, the group on the right  has a chance of surviving","The 5 skydivers on the left were saved.
 
The ","The 5 skydivers on the left died.

The 8 skydivers on the right were saved.",8,65, skydivers on the right,Skydivers on the left: 5,,,,,,0,0,0,0,0,4,4,4,,,,,,,,,,,,,,,,,,,,,,,,,29.791500799999994,None,space,0.566003300000375,29.791500799999994,None,,,,,,,,,,,,,,,,,,,,,,,,,,,,,,,,,,,,,,,,,,,,,,,,,,,,,,,,,,,2,001,2019_Nov_21_1218,MoralSRBinaryChoice,3.2.4,59.82492832971001,
,000:005,EMPHASIZE,DE-EMPHASIZE,"• You are the head of a safety crew that has been alerted about a group of skydivers that is wearing defective parachutes and is currently in a freefall 

• You've arrived in time to see that a group of divers is holding onto one another and will fall to their death a few feet to your right unless your crew's trampoline is moved beneath them",Skydivers on right: 6,"Probability of 
parachute opening: 35% ","Plan: Direct your crew to the right, repositioning the trampoline and leaving the skydivers on the left to die 

Do nothing: The skydivers on the left will live, the group on the right  has a chance of surviving","The 3 skydivers on the left were saved.
 
The ","The 3 skydivers on the left died.

The 6 skydivers on the right were saved.",6,35, skydivers on the right,Skydivers on the left: 3,,,,,,0,0,0,0,,,,,0,0,0,0,,,,,,,,,,,,,,,,,,,52.84957469999972,None,,,,,,,32.3887794000002,None,n,8.36504210000021,42.45641609999984,None,50.84801619999962,None,42.45641609999984,None,42.45641609999984,None,42.45641609999984,None,42.45641609999984,None,42.45641609999984,None,42.45641609999984,None,42.45641609999984,None,54.88877750000029,None,,,,,,,,,,,,,,,,,,,,,,,,,,,,,,,,,,,2,001,2019_Nov_21_1218,MoralSRBinaryChoice,3.2.4,59.82492832971001,
,000:005,EMPHASIZE,DE-EMPHASIZE,"• Your crew sees a smaller group of divers apart from the rest who are much closer to reaching the ground, and instinctively moves a few feet to the left to catch them

• You know that there won't be enough time to reach the group on the right if you wait to catch the group on the left",Skydivers on right: 9,"Probability of 
parachute opening: 50% ","Plan: Direct your crew to the right, repositioning the trampoline and leaving the skydivers on the left to die 

Do nothing: The skydivers on the left will live, the group on the right  has a chance of surviving","The 4 skydivers on the left were saved.
 
The ","The 4 skydivers on the left died.

The 9 skydivers on the right were saved.",9,50, skydivers on the right,Skydivers on the left: 4,,,,,,0,0,0,0,,,,,0,1,1,1,,,,,,,,,,,,,,,,,,,63.49231250000048,None,,,,,,,,,n,0.5889388999985385,60.87227659999917,None,61.49006980000013,None,60.87227659999917,None,60.87227659999917,None,60.87227659999917,None,60.87227659999917,None,60.87227659999917,None,60.87227659999917,None,60.87227659999917,None,65.51499879999938,None,,,,,,,,,,,,,,,,,,,,,,,,,,,,,,,,,,,2,001,2019_Nov_21_1218,MoralSRBinaryChoice,3.2.4,59.82492832971001,
,000:005,EMPHASIZE,DE-EMPHASIZE,"• If nothing is done, the safety crew will catch the divers to the left, avoiding their death, but the separate group of divers will land on the ground, causing their deaths

• You can re-direct your crew to the right, preventing the death of the group, but the divers on the left won't be caught",Skydivers on right: 5,"Probability of 
parachute opening: 50% ","Plan: Direct your crew to the right, repositioning the trampoline and leaving the skydivers on the left to die 

Do nothing: The skydivers on the left will live, the group on the right  has a chance of surviving","The 2 skydivers on the left were saved.
 
The ","The 2 skydivers on the left died.

The 5 skydivers on the right were saved.",5,50, skydivers on the right,Skydivers on the left: 2,,,,,,0,0,0,0,,,,,0,2,2,2,,,,,,,,,,,,,,,,,,,74.96808079999937,None,,,,,,,,,n,1.4453954000000522,71.5039625999998,None,72.96637679999913,None,71.5039625999998,None,71.5039625999998,None,71.5039625999998,None,71.5039625999998,None,71.5039625999998,None,71.5039625999998,None,71.5039625999998,None,76.98637360000066,None,,,,,,,,,,,,,,,,,,,,,,,,,,,,,,,,,,,2,001,2019_Nov_21_1218,MoralSRBinaryChoice,3.2.4,59.82492832971001,
,000:005,EMPHASIZE,DE-EMPHASIZE,"• You also know that there is a chance that one of the parachutes of the group will still open in time to prevent all of their deaths

• There is no chance that the parachute will open for the one diver, given how close he is to the ground",Skydivers on right: 4,"Probability of 
parachute opening: 65% ","Plan: Direct your crew to the right, repositioning the trampoline and leaving the skydivers on the left to die 

Do nothing: The skydivers on the left will live, the group on the right  has a chance of surviving","The 3 skydivers on the left were saved.
 
The ","The 3 skydivers on the left died.

The 4 skydivers on the right were saved.",4,65, skydivers on the right,Skydivers on the left: 3,,,,,,0,0,0,0,,,,,0,3,3,3,,,,,,,,,,,,,,,,,,,87.99523249999947,None,,,,,,,,,n,2.9868881999991572,82.98642760000075,None,85.99437039999975,None,82.98642760000075,None,82.98642760000075,None,82.98642760000075,None,82.98642760000075,None,82.98642760000075,None,82.98642760000075,None,82.98642760000075,None,90.01350570000068,None,,,,,,,,,,,,,,,,,,,,,,,,,,,,,,,,,,,2,001,2019_Nov_21_1218,MoralSRBinaryChoice,3.2.4,59.82492832971001,
,000:005,EMPHASIZE,DE-EMPHASIZE,"Consider each of the following scenarios and, for each one, determine what course of action you will take.",Skydivers on right: 8,"Probability of 
parachute opening: 65% ","Plan: Direct your crew to the right, repositioning the trampoline and leaving the skydivers on the left to die 

Do nothing: The skydivers on the left will live, the group on the right  has a chance of surviving","The 5 skydivers on the left were saved.
 
The ","The 5 skydivers on the left died.

The 8 skydivers on the right were saved.",8,65, skydivers on the right,Skydivers on the left: 5,,,,,,0,0,0,0,,,,,0,4,4,4,,,,,,,,,,,,,,,,,,,99.25486289999935,None,,,,,,,,,n,1.2138302999992447,96.00745509999979,None,97.25347229999898,None,96.00745509999979,None,96.00745509999979,None,96.00745509999979,None,96.00745509999979,None,96.00745509999979,None,96.00745509999979,None,96.00745509999979,None,101.27338579999923,None,,,,,,,,,,,,,,,,,,,,,,,,,,,,,,,,,,,2,001,2019_Nov_21_1218,MoralSRBinaryChoice,3.2.4,59.82492832971001,
,000:005,EMPHASIZE,DE-EMPHASIZE,,,,,,,,,,,,,,,,0,0,0,0,,,,,,,,,,,,,,,,,,,,,,,,,,,,,,,,,,,,,,,,,,,,,,,,,,,,,,,,,,,,,,,,,,,,,,,,,,,,,,,,,,,,,,,,,,,,,2,001,2019_Nov_21_1218,MoralSRBinaryChoice,3.2.4,59.82492832971001,
,,,,,,,,,,,,,,,,,,,,,,,,,,,,,,,,,,,,,,,,,,,,,,,,,,,,,,,,,,,,,,,,,,,,,,,,,,,,,,,,,105.25971140000001,None,108.26256060000014,None,space,4.814742099999421,108.26256060000014,None,,,,,,,,,,,,,,,,,,,,,,,,,,,2,001,2019_Nov_21_1218,MoralSRBinaryChoice,3.2.4,59.82492832971001,
,,DE-EMPHASIZE,EMPHASIZE,"• There has been an accident in the basement of an office building

• A pipe has broken and is releasing a lethal gas into the building's ventilation system",Workers in Room A: 5,Probability of escape: 35%,"Plan: Hit the button to divert the gas to Room B, killing the workers there

Do nothing: The workers in Room B will live, the group in Room A has a chance of escaping","The 3 workers in Room B lived.

The ","The 3 workers in Room B died. 

The 5 workers in Room A were saved.",5,50, workers in Room A,Workers in Room B: 3,005:0010,,,,,,,,,,,,,,,,,0,0,0,0,0,0,0,0,,,,,,,,,,,113.09981039999911,None,,,,,,,,,,,,,,,,,,,,,,,,,,,,,,,,,,,,,,,115.1373738000002,None,space,3.0599777000006725,115.1373738000002,None,,,,,,,,,,,,,,,,,,,,,2,001,2019_Nov_21_1218,MoralSRBinaryChoice,3.2.4,59.82492832971001,
,,DE-EMPHASIZE,EMPHASIZE,"• If nothing is done, the gas will travel upward to Room A and cause the death of all workers there

• You are the building manager",Workers in Room A: 10,Probability of escape: 50%,"Plan: Hit the button to divert the gas to Room B, killing the workers there

Do nothing: The workers in Room B will live, the group in Room A has a chance of escaping","The 4 workers in Room B lived.

The ","The 4 workers in Room B died. 

The 10 workers in Room A were saved.",10,35, workers in Room A,Workers in Room B: 4,005:0010,,,,,,,,,,,,,,,,,0,0,0,0,0,1,1,1,,,,,,,,,,,,,,,,,,,,,,,,,,,,,,,,,,,,,,,,,,,,,,,,,,,118.24119389999942,None,space,1.6520246000000043,118.24119389999942,None,,,,,,,,,,,,,,,,,,,,,2,001,2019_Nov_21_1218,MoralSRBinaryChoice,3.2.4,59.82492832971001,
,,DE-EMPHASIZE,EMPHASIZE,"• You know that the only way to avoid the deaths of the workers in Room A is to block the main vent immediately by hitting a button that will close one of the vent doors

• You also know that if you close the vent door the gas will be diverted into a different room, Room B, and cause the death of the workers there",Workers in Room A: 6,Probability of escape: 65%,"Plan: Hit the button to divert the gas to Room B, killing the workers there

Do nothing: The workers in Room B will live, the group in Room A has a chance of escaping","The 4 workers in Room B lived.

The ","The 4 workers in Room B died. 

The 6 workers in Room A were saved.",6,65, workers in Room A,Workers in Room B: 4,005:0010,,,,,,,,,,,,,,,,,0,0,0,0,0,2,2,2,,,,,,,,,,,,,,,,,,,,,,,,,,,,,,,,,,,,,,,,,,,,,,,,,,,119.96379259999958,None,space,2.2814927999988868,119.96379259999958,None,,,,,,,,,,,,,,,,,,,,,2,001,2019_Nov_21_1218,MoralSRBinaryChoice,3.2.4,59.82492832971001,
,,DE-EMPHASIZE,EMPHASIZE,"• You are also aware that there is a chance that the workers in Room A will escape before the gas reaches them

• This would be impossible for the workers in Room B",Workers in Room A: 12,Probability of escape: 50%,"Plan: Hit the button to divert the gas to Room B, killing the workers there

Do nothing: The workers in Room B will live, the group in Room A has a chance of escaping","The 6 workers in Room B lived.

The ","The 6 workers in Room B died. 

The 12 workers in Room A were saved.",12,50, workers in Room A,Workers in Room B: 6,005:0010,,,,,,,,,,,,,,,,,0,0,0,0,0,3,3,3,,,,,,,,,,,,,,,,,,,,,,,,,,,,,,,,,,,,,,,,,,,,,,,,,,,122.29344200000014,None,space,0.9129654999997001,122.29344200000014,None,,,,,,,,,,,,,,,,,,,,,2,001,2019_Nov_21_1218,MoralSRBinaryChoice,3.2.4,59.82492832971001,
,,DE-EMPHASIZE,EMPHASIZE,"Consider each of the following scenarios and, for each one, determine what course of action you will take.",Workers in Room A: 5,Probability of escape: 65%,"Plan: Hit the button to divert the gas to Room B, killing the workers there

Do nothing: The workers in Room B will live, the group in Room A has a chance of escaping","The 4 workers in Room B lived.

The ","The 4 workers in Room B died. 

The 5 workers in Room A were saved.",5,65, workers in Room A,Workers in Room B: 4,005:0010,,,,,,,,,,,,,,,,,0,0,0,0,0,4,4,4,,,,,,,,,,,,,,,,,,,,,,,,,,,,,,,,,,,,,,,,,,,,,,,,,,,123.23700839999947,None,space,0.6402822000000015,123.23700839999947,None,,,,,,,,,,,,,,,,,,,,,2,001,2019_Nov_21_1218,MoralSRBinaryChoice,3.2.4,59.82492832971001,
,,DE-EMPHASIZE,EMPHASIZE,"• There has been an accident in the basement of an office building

• A pipe has broken and is releasing a lethal gas into the building's ventilation system",Workers in Room A: 5,Probability of escape: 35%,"Plan: Hit the button to divert the gas to Room B, killing the workers there

Do nothing: The workers in Room B will live, the group in Room A has a chance of escaping","The 3 workers in Room B lived.

The ","The 3 workers in Room B died. 

The 5 workers in Room A were saved.",5,50, workers in Room A,Workers in Room B: 3,005:0010,,,,,,,,,,,,,,,,,0,0,0,0,,,,,0,0,0,0,,,,,,,152.51563139999962,None,,,,,,,125.89756449999913,None,,,,,,,,,,,,,,,,,,,,,154.5358787999994,None,,,,,,,,,,,,,,,n,14.536653099999967,135.94854309999937,None,150.51399280000078,None,135.94854309999937,None,135.94854309999937,None,135.94854309999937,None,135.94854309999937,None,135.94854309999937,None,135.94854309999937,None,135.94854309999937,None,2,001,2019_Nov_21_1218,MoralSRBinaryChoice,3.2.4,59.82492832971001,
,,DE-EMPHASIZE,EMPHASIZE,"• If nothing is done, the gas will travel upward to Room A and cause the death of all workers there

• You are the building manager",Workers in Room A: 10,Probability of escape: 50%,"Plan: Hit the button to divert the gas to Room B, killing the workers there

Do nothing: The workers in Room B will live, the group in Room A has a chance of escaping","The 4 workers in Room B lived.

The ","The 4 workers in Room B died. 

The 10 workers in Room A were saved.",10,35, workers in Room A,Workers in Room B: 4,005:0010,,,,,,,,,,,,,,,,,0,0,0,0,,,,,0,1,1,1,,,,,,,166.1099493999991,None,,,,,,,,,,,,,,,,,,,,,,,,,,,,,168.127898499999,None,,,,,,,,,,,,,,,n,3.5492500999989716,160.53598500000044,None,164.10921290000078,None,160.53598500000044,None,160.53598500000044,None,160.53598500000044,None,160.53598500000044,None,160.53598500000044,None,160.53598500000044,None,160.53598500000044,None,2,001,2019_Nov_21_1218,MoralSRBinaryChoice,3.2.4,59.82492832971001,
,,DE-EMPHASIZE,EMPHASIZE,"• You know that the only way to avoid the deaths of the workers in Room A is to block the main vent immediately by hitting a button that will close one of the vent doors

• You also know that if you close the vent door the gas will be diverted into a different room, Room B, and cause the death of the workers there",Workers in Room A: 6,Probability of escape: 65%,"Plan: Hit the button to divert the gas to Room B, killing the workers there

Do nothing: The workers in Room B will live, the group in Room A has a chance of escaping","The 4 workers in Room B lived.

The ","The 4 workers in Room B died. 

The 6 workers in Room A were saved.",6,65, workers in Room A,Workers in Room B: 4,005:0010,,,,,,,,,,,,,,,,,0,0,0,0,,,,,0,2,2,2,,,,,,,180.4557659000002,None,,,,,,,,,,,,,,,,,,,,,,,,,,,,,182.47305959999903,None,,,,,,,,,,,,,,,n,4.315190900000744,174.12210839999898,None,178.4540846,None,174.12210839999898,None,174.12210839999898,None,174.12210839999898,None,174.12210839999898,None,174.12210839999898,None,174.12210839999898,None,174.12210839999898,None,2,001,2019_Nov_21_1218,MoralSRBinaryChoice,3.2.4,59.82492832971001,
,,DE-EMPHASIZE,EMPHASIZE,"• You are also aware that there is a chance that the workers in Room A will escape before the gas reaches them

• This would be impossible for the workers in Room B",Workers in Room A: 12,Probability of escape: 50%,"Plan: Hit the button to divert the gas to Room B, killing the workers there

Do nothing: The workers in Room B will live, the group in Room A has a chance of escaping","The 6 workers in Room B lived.

The ","The 6 workers in Room B died. 

The 12 workers in Room A were saved.",12,50, workers in Room A,Workers in Room B: 6,005:0010,,,,,,,,,,,,,,,,,0,0,0,0,,,,,0,3,3,3,,,,,,,202.47395890000007,None,,,,,,,,,,,,,,,,,,,,,,,,,,,,,204.4908792999995,None,,,,,,,,,,,,,,,n,11.978297499999826,188.47559659999934,None,200.47230049999962,None,188.47559659999934,None,188.47559659999934,None,188.47559659999934,None,188.47559659999934,None,188.47559659999934,None,188.47559659999934,None,188.47559659999934,None,2,001,2019_Nov_21_1218,MoralSRBinaryChoice,3.2.4,59.82492832971001,
,,DE-EMPHASIZE,EMPHASIZE,"Consider each of the following scenarios and, for each one, determine what course of action you will take.",Workers in Room A: 5,Probability of escape: 65%,"Plan: Hit the button to divert the gas to Room B, killing the workers there

Do nothing: The workers in Room B will live, the group in Room A has a chance of escaping","The 4 workers in Room B lived.

The ","The 4 workers in Room B died. 

The 5 workers in Room A were saved.",5,65, workers in Room A,Workers in Room B: 4,005:0010,,,,,,,,,,,,,,,,,0,0,0,0,,,,,0,4,4,4,,,,,,,215.06759210000018,None,,,,,,,,,,,,,,,,,,,,,,,,,,,,,217.0851218000007,None,,,,,,,,,,,,,,,n,2.5539872000008472,210.49154679999992,None,213.0658698999996,None,210.49154679999992,None,210.49154679999992,None,210.49154679999992,None,210.49154679999992,None,210.49154679999992,None,210.49154679999992,None,210.49154679999992,None,2,001,2019_Nov_21_1218,MoralSRBinaryChoice,3.2.4,59.82492832971001,
,,DE-EMPHASIZE,EMPHASIZE,,,,,,,,,,,005:0010,,,,,,,,,,,,,,,,,0,0,0,0,,,,,,,,,,,,,,,,,,,,,,,,,,,,,,,,,,,,,,,,,,,,,,,,,,,,,,,,,,,,,,,,,,,,,,,,,,,,,,,,,2,001,2019_Nov_21_1218,MoralSRBinaryChoice,3.2.4,59.82492832971001,
,,EMPHASIZE,DE-EMPHASIZE,"• You are operating a crane in front of a tall bridge when an earthquake hits

• As a result of the earthquake, a gap has formed in the bridge, and a bus carrying a number of people is now partially hanging off of this gap in the bridge
",People on bus: 7,"Probability bus will 
drive to safety: 35%","Plan: Move your crane to push the bus, certainly killing the people in the car

Do nothing: The people in the car will live, the people in the bus have a chance of surviving","The 2 people in the car lived.

The ","The 2 people in the car died. 

The 7 people on the bus were saved.",7,50, people on the bus,People in the car: 2,0010:015,,,,,,,,,,,,,,,,,0,1,1,1,0,0,0,0,,,,,,,,,,,221.07225319999998,None,,,,,,,,,,,,,,,,,,,,,,,,,,,,,,,,,,,,,,,223.1224284,None,space,2.610838099999455,223.1224284,None,,,,,,,,,,,,,,,,,,,,,2,001,2019_Nov_21_1218,MoralSRBinaryChoice,3.2.4,59.82492832971001,
,,EMPHASIZE,DE-EMPHASIZE,"• If nothing is done, the bus will soon plummet and all of these people will be killed

• You know that you can move your crane in a way to push the bus back onto the bridge, avoiding  the deaths of all the people on board",People on bus: 9,"Probability bus will 
drive to safety: 35%","Plan: Move your crane to push the bus, certainly killing the people in the car

Do nothing: The people in the car will live, the people in the bus have a chance of surviving","The 6 people in the car lived.

The ","The 6 people in the car died. 

The 9 people on the bus were saved.",9,65, people on the bus,People in the car: 6,0010:015,,,,,,,,,,,,,,,,,0,1,1,1,0,1,1,1,,,,,,,,,,,,,,,,,,,,,,,,,,,,,,,,,,,,,,,,,,,,,,,,,,,225.79131009999946,None,space,5.045936900000015,225.79131009999946,None,,,,,,,,,,,,,,,,,,,,,2,001,2019_Nov_21_1218,MoralSRBinaryChoice,3.2.4,59.82492832971001,
,,EMPHASIZE,DE-EMPHASIZE,"• However, you are also aware that in its current position your crane is supporting one small part of the bridge on which there is currently a single car

• If you move the crane, this part will certainly collapse and the people in that car will be killed",People on bus: 6,"Probability bus will 
drive to safety: 50%","Plan: Move your crane to push the bus, certainly killing the people in the car

Do nothing: The people in the car will live, the people in the bus have a chance of surviving","The 2 people in the car lived.

The ","The 2 people in the car died. 

The 6 people on the bus were saved.",6,35, people on the bus,People in the car: 2,0010:015,,,,,,,,,,,,,,,,,0,1,1,1,0,2,2,2,,,,,,,,,,,,,,,,,,,,,,,,,,,,,,,,,,,,,,,,,,,,,,,,,,,230.90437650000058,None,space,1.2768639999994775,230.90437650000058,None,,,,,,,,,,,,,,,,,,,,,2,001,2019_Nov_21_1218,MoralSRBinaryChoice,3.2.4,59.82492832971001,
,,EMPHASIZE,DE-EMPHASIZE,"• You also know that there is a chance the bus will be able to drive back onto the bridge, preventing the deaths of everyone on board
 
• There is no chance that the car will be able to avoid falling if you move your crane ",People on bus: 10,"Probability bus will 
drive to safety: 65%","Plan: Move your crane to push the bus, certainly killing the people in the car

Do nothing: The people in the car will live, the people in the bus have a chance of surviving","The 7 people in the car lived.

The ","The 7 people in the car died. 

The 10 people on the bus were saved.",10,65, people on the bus,People in the car: 7,0010:015,,,,,,,,,,,,,,,,,0,1,1,1,0,3,3,3,,,,,,,,,,,,,,,,,,,,,,,,,,,,,,,,,,,,,,,,,,,,,,,,,,,232.2257341000004,None,space,2.2593577000006917,232.2257341000004,None,,,,,,,,,,,,,,,,,,,,,2,001,2019_Nov_21_1218,MoralSRBinaryChoice,3.2.4,59.82492832971001,
,,EMPHASIZE,DE-EMPHASIZE,"Consider each of the following scenarios and, for each one, determine what course of action you will take.",People on bus: 7,"Probability bus will 
drive to safety: 35%","Plan: Move your crane to push the bus, certainly killing the people in the car

Do nothing: The people in the car will live, the people in the bus have a chance of surviving","The 4 people in the car lived.

The ","The 4 people in the car died. 

The 7 people on the bus were saved.",7,50, people on the bus,People in the car: 4,0010:015,,,,,,,,,,,,,,,,,0,1,1,1,0,4,4,4,,,,,,,,,,,,,,,,,,,,,,,,,,,,,,,,,,,,,,,,,,,,,,,,,,,234.51298759999918,None,space,1.1561072999993485,234.51298759999918,None,,,,,,,,,,,,,,,,,,,,,2,001,2019_Nov_21_1218,MoralSRBinaryChoice,3.2.4,59.82492832971001,
,,EMPHASIZE,DE-EMPHASIZE,"• You are operating a crane in front of a tall bridge when an earthquake hits

• As a result of the earthquake, a gap has formed in the bridge, and a bus carrying a number of people is now partially hanging off of this gap in the bridge
",People on bus: 7,"Probability bus will 
drive to safety: 35%","Plan: Move your crane to push the bus, certainly killing the people in the car

Do nothing: The people in the car will live, the people in the bus have a chance of surviving","The 2 people in the car lived.

The ","The 2 people in the car died. 

The 7 people on the bus were saved.",7,50, people on the bus,People in the car: 2,0010:015,,,,,,,,,,,,,,,,,0,1,1,1,,,,,0,0,0,0,,,,,,,255.71766349999962,None,,,,,,,237.70265090000066,None,,,,,,,,,,,,,,,,,,,,,257.7369226999999,None,,,,,,,,,,,,,,,n,5.941663800000242,247.74345750000066,None,253.7160569000007,None,247.74345750000066,None,247.74345750000066,None,247.74345750000066,None,247.74345750000066,None,247.74345750000066,None,247.74345750000066,None,247.74345750000066,None,2,001,2019_Nov_21_1218,MoralSRBinaryChoice,3.2.4,59.82492832971001,
,,EMPHASIZE,DE-EMPHASIZE,"• If nothing is done, the bus will soon plummet and all of these people will be killed

• You know that you can move your crane in a way to push the bus back onto the bridge, avoiding  the deaths of all the people on board",People on bus: 9,"Probability bus will 
drive to safety: 35%","Plan: Move your crane to push the bus, certainly killing the people in the car

Do nothing: The people in the car will live, the people in the bus have a chance of surviving","The 6 people in the car lived.

The ","The 6 people in the car died. 

The 9 people on the bus were saved.",9,65, people on the bus,People in the car: 6,0010:015,,,,,,,,,,,,,,,,,0,1,1,1,,,,,0,1,1,1,,,,,,,269.2455695999997,None,,,,,,,,,,,,,,,,,,,,,,,,,,,,,271.2625896999998,None,,,,,,,,,,,,,,,n,3.4932960999994975,263.7279763000006,None,267.2438865000004,None,263.7279763000006,None,263.7279763000006,None,263.7279763000006,None,263.7279763000006,None,263.7279763000006,None,263.7279763000006,None,263.7279763000006,None,2,001,2019_Nov_21_1218,MoralSRBinaryChoice,3.2.4,59.82492832971001,
,,EMPHASIZE,DE-EMPHASIZE,"• However, you are also aware that in its current position your crane is supporting one small part of the bridge on which there is currently a single car

• If you move the crane, this part will certainly collapse and the people in that car will be killed",People on bus: 6,"Probability bus will 
drive to safety: 50%","Plan: Move your crane to push the bus, certainly killing the people in the car

Do nothing: The people in the car will live, the people in the bus have a chance of surviving","The 2 people in the car lived.

The ","The 2 people in the car died. 

The 6 people on the bus were saved.",6,35, people on the bus,People in the car: 2,0010:015,,,,,,,,,,,,,,,,,0,1,1,1,,,,,0,2,2,2,,,,,,,281.3721888,None,,,,,,,,,,,,,,,,,,,,,,,,,,,,,283.38642400000026,None,,,,,,,,,,,,,,,n,2.08719740000015,277.26192549999905,None,279.3706280999995,None,277.26192549999905,None,277.26192549999905,None,277.26192549999905,None,277.26192549999905,None,277.26192549999905,None,277.26192549999905,None,277.26192549999905,None,2,001,2019_Nov_21_1218,MoralSRBinaryChoice,3.2.4,59.82492832971001,
,,EMPHASIZE,DE-EMPHASIZE,"• You also know that there is a chance the bus will be able to drive back onto the bridge, preventing the deaths of everyone on board
 
• There is no chance that the car will be able to avoid falling if you move your crane ",People on bus: 10,"Probability bus will 
drive to safety: 65%","Plan: Move your crane to push the bus, certainly killing the people in the car

Do nothing: The people in the car will live, the people in the bus have a chance of surviving","The 7 people in the car lived.

The ","The 7 people in the car died. 

The 10 people on the bus were saved.",10,65, people on the bus,People in the car: 7,0010:015,,,,,,,,,,,,,,,,,0,1,1,1,,,,,0,3,3,3,,,,,,,294.5665461999997,None,,,,,,,,,,,,,,,,,,,,,,,,,,,,,296.58403240000007,None,,,,,,,,,,,,,,,y,3.1440462999999,289.38909160000003,None,292.5649247000001,None,289.38909160000003,None,289.38909160000003,None,289.38909160000003,None,289.38909160000003,None,289.38909160000003,None,289.38909160000003,None,289.38909160000003,None,2,001,2019_Nov_21_1218,MoralSRBinaryChoice,3.2.4,59.82492832971001,
,,EMPHASIZE,DE-EMPHASIZE,"Consider each of the following scenarios and, for each one, determine what course of action you will take.",People on bus: 7,"Probability bus will 
drive to safety: 35%","Plan: Move your crane to push the bus, certainly killing the people in the car

Do nothing: The people in the car will live, the people in the bus have a chance of surviving","The 4 people in the car lived.

The ","The 4 people in the car died. 

The 7 people on the bus were saved.",7,50, people on the bus,People in the car: 4,0010:015,,,,,,,,,,,,,,,,,0,1,1,1,,,,,0,4,4,4,,,,,,,307.17714440000054,None,,,,,,,,,,,,,,,,,,,,,,,,,,,,,309.1921646999999,None,,,,,,,,,,,,,,,n,2.5732996000006096,302.5839089000001,None,305.1753365000004,None,302.5839089000001,None,302.5839089000001,None,302.5839089000001,None,302.5839089000001,None,302.5839089000001,None,302.5839089000001,None,302.5839089000001,None,2,001,2019_Nov_21_1218,MoralSRBinaryChoice,3.2.4,59.82492832971001,
,,EMPHASIZE,DE-EMPHASIZE,,,,,,,,,,,0010:015,,,,,,,,,,,,,,,,,0,1,1,1,,,,,,,,,,,,,,,,,,,,,,,,,,,,,,,,,,,,,,,,,,,,,,,,,,,,,,,,,,,,,,,,,,,,,,,,,,,,,,,,,2,001,2019_Nov_21_1218,MoralSRBinaryChoice,3.2.4,59.82492832971001,
,,DE-EMPHASIZE,EMPHASIZE,"• You are driving a rescue boat in the ocean, heading east towards a group of drowning people

• You receive a distress signal informing you that a small boat has capsized in the opposite direction",People drowning in the west: 11,"Probability of alternate 
rescue boat reaching them: 50%","Plan: Change your course to head towards the people in the west, leaving the people in the east to die

Do nothing: The group in the east will live, the group in the west has a chance of surviving","The 5 people in the east lived.

The ","The 5 people in the east died.

The 11 people in the west were saved.",11,50, people in the west,"People drowning in 
the east: 5",015:020,,,,,,,,,,,,,,,,,0,2,2,2,0,0,0,0,,,,,,,,,,,313.18204949999927,None,,,,,,,,,,,,,,,,,,,,,,,,,,,,,,,,,,,,,,,315.22387030000027,None,space,3.6452879999997094,315.22387030000027,None,,,,,,,,,,,,,,,,,,,,,2,001,2019_Nov_21_1218,MoralSRBinaryChoice,3.2.4,59.82492832971001,
,,DE-EMPHASIZE,EMPHASIZE,"• All of the people aboard the capsized boat are now drowning

• You know that if you immediately change course and go full speed, bearing west, you will reach these people in time to save them",People drowning in the west: 10,"Probability of alternate 
rescue boat reaching them: 35%","Plan: Change your course to head towards the people in the west, leaving the people in the east to die

Do nothing: The group in the east will live, the group in the west has a chance of surviving","The 6 people in the east lived.

The ","The 6 people in the east died.

The 10 people in the west were saved.",10,65, people in the west,"People drowning in 
the east: 6",015:020,,,,,,,,,,,,,,,,,0,2,2,2,0,1,1,1,,,,,,,,,,,,,,,,,,,,,,,,,,,,,,,,,,,,,,,,,,,,,,,,,,,318.9144620999996,None,space,2.466753799999424,318.9144620999996,None,,,,,,,,,,,,,,,,,,,,,2,001,2019_Nov_21_1218,MoralSRBinaryChoice,3.2.4,59.82492832971001,
,,DE-EMPHASIZE,EMPHASIZE,"• However, if you do this, the people drowning in the east will certainly die

• If you do nothing and hold your course, the people in the east will be saved, but you will not reach the people to the west in time to save them",People drowning in the west: 8,"Probability of alternate 
rescue boat reaching them: 50%","Plan: Change your course to head towards the people in the west, leaving the people in the east to die

Do nothing: The group in the east will live, the group in the west has a chance of surviving","The 3 people in the east lived.

The ","The 3 people in the east died.

The 8 people in the west were saved.",8,50, people in the west,"People drowning in 
the east: 3",015:020,,,,,,,,,,,,,,,,,0,2,2,2,0,2,2,2,,,,,,,,,,,,,,,,,,,,,,,,,,,,,,,,,,,,,,,,,,,,,,,,,,,321.4390949999997,None,space,4.102047399999719,321.4390949999997,None,,,,,,,,,,,,,,,,,,,,,2,001,2019_Nov_21_1218,MoralSRBinaryChoice,3.2.4,59.82492832971001,
,,DE-EMPHASIZE,EMPHASIZE,"• You also know that the only other rescue boat in the area is much further to the west, so would be unable to reach the people in the east

• But there is a chance the rescue boat will reach the group drowning to the west",People drowning in the west: 8,"Probability of alternate 
rescue boat reaching them: 65%","Plan: Change your course to head towards the people in the west, leaving the people in the east to die

Do nothing: The group in the east will live, the group in the west has a chance of surviving","The 2 people in the east lived.

The ","The 2 people in the east died.

The 8 people in the west were saved.",8,35, people in the west,"People drowning in 
the east: 2",015:020,,,,,,,,,,,,,,,,,0,2,2,2,0,3,3,3,,,,,,,,,,,,,,,,,,,,,,,,,,,,,,,,,,,,,,,,,,,,,,,,,,,325.58094150000034,None,space,21.40009529999952,325.58094150000034,None,,,,,,,,,,,,,,,,,,,,,2,001,2019_Nov_21_1218,MoralSRBinaryChoice,3.2.4,59.82492832971001,
,,DE-EMPHASIZE,EMPHASIZE,"Consider each of the following scenarios and, for each one, determine what course of action you will take.",People drowning in the west: 12,"Probability of alternate 
rescue boat reaching them: 50%","Plan: Change your course to head towards the people in the west, leaving the people in the east to die

Do nothing: The group in the east will live, the group in the west has a chance of surviving","The 6 people in the east lived.

The ","The 6 people in the east died.

The 12 people in the west were saved.",12,50, people in the west,"People drowning in 
the east: 6",015:020,,,,,,,,,,,,,,,,,0,2,2,2,0,4,4,4,,,,,,,,,,,,,,,,,,,,,,,,,,,,,,,,,,,,,,,,,,,,,,,,,,,347.02162379999936,None,space,2.3274423999991996,347.02162379999936,None,,,,,,,,,,,,,,,,,,,,,2,001,2019_Nov_21_1218,MoralSRBinaryChoice,3.2.4,59.82492832971001,
,,DE-EMPHASIZE,EMPHASIZE,"• You are driving a rescue boat in the ocean, heading east towards a group of drowning people

• You receive a distress signal informing you that a small boat has capsized in the opposite direction",People drowning in the west: 11,"Probability of alternate 
rescue boat reaching them: 50%","Plan: Change your course to head towards the people in the west, leaving the people in the east to die

Do nothing: The group in the east will live, the group in the west has a chance of surviving","The 5 people in the east lived.

The ","The 5 people in the east died.

The 11 people in the west were saved.",11,50, people in the west,"People drowning in 
the east: 5",015:020,,,,,,,,,,,,,,,,,0,2,2,2,,,,,0,0,0,0,,,,,,,376.06758979999904,None,,,,,,,351.3805188000006,None,,,,,,,,,,,,,,,,,,,,,378.0841550999994,None,,,,,,,,,,,,,,,n,12.61723499999971,361.41979750000064,None,374.0658925000007,None,361.41979750000064,None,361.41979750000064,None,361.41979750000064,None,361.41979750000064,None,361.41979750000064,None,361.41979750000064,None,361.41979750000064,None,2,001,2019_Nov_21_1218,MoralSRBinaryChoice,3.2.4,59.82492832971001,
,,DE-EMPHASIZE,EMPHASIZE,"• All of the people aboard the capsized boat are now drowning

• You know that if you immediately change course and go full speed, bearing west, you will reach these people in time to save them",People drowning in the west: 10,"Probability of alternate 
rescue boat reaching them: 35%","Plan: Change your course to head towards the people in the west, leaving the people in the east to die

Do nothing: The group in the east will live, the group in the west has a chance of surviving","The 6 people in the east lived.

The ","The 6 people in the east died.

The 10 people in the west were saved.",10,65, people in the west,"People drowning in 
the east: 6",015:020,,,,,,,,,,,,,,,,,0,2,2,2,,,,,0,1,1,1,,,,,,,391.5971110999999,None,,,,,,,,,,,,,,,,,,,,,,,,,,,,,393.61555690000023,None,,,,,,,,,,,,,,,n,5.485511699998824,384.08762469999965,None,389.5953981999992,None,384.08762469999965,None,384.08762469999965,None,384.08762469999965,None,384.08762469999965,None,384.08762469999965,None,384.08762469999965,None,384.08762469999965,None,2,001,2019_Nov_21_1218,MoralSRBinaryChoice,3.2.4,59.82492832971001,
,,DE-EMPHASIZE,EMPHASIZE,"• However, if you do this, the people drowning in the east will certainly die

• If you do nothing and hold your course, the people in the east will be saved, but you will not reach the people to the west in time to save them",People drowning in the west: 8,"Probability of alternate 
rescue boat reaching them: 50%","Plan: Change your course to head towards the people in the west, leaving the people in the east to die

Do nothing: The group in the east will live, the group in the west has a chance of surviving","The 3 people in the east lived.

The ","The 3 people in the east died.

The 8 people in the west were saved.",8,50, people in the west,"People drowning in 
the east: 3",015:020,,,,,,,,,,,,,,,,,0,2,2,2,,,,,0,2,2,2,,,,,,,404.4744157999994,None,,,,,,,,,,,,,,,,,,,,,,,,,,,,,406.4927544000002,None,,,,,,,,,,,,,,,n,2.837660799999867,399.6164155999995,None,402.47288169999956,None,399.6164155999995,None,399.6164155999995,None,399.6164155999995,None,399.6164155999995,None,399.6164155999995,None,399.6164155999995,None,399.6164155999995,None,2,001,2019_Nov_21_1218,MoralSRBinaryChoice,3.2.4,59.82492832971001,
,,DE-EMPHASIZE,EMPHASIZE,"• You also know that the only other rescue boat in the area is much further to the west, so would be unable to reach the people in the east

• But there is a chance the rescue boat will reach the group drowning to the west",People drowning in the west: 8,"Probability of alternate 
rescue boat reaching them: 65%","Plan: Change your course to head towards the people in the west, leaving the people in the east to die

Do nothing: The group in the east will live, the group in the west has a chance of surviving","The 2 people in the east lived.

The ","The 2 people in the east died.

The 8 people in the west were saved.",8,35, people in the west,"People drowning in 
the east: 2",015:020,,,,,,,,,,,,,,,,,0,2,2,2,,,,,0,3,3,3,,,,,,,420.1542709999994,None,,,,,,,,,,,,,,,,,,,,,,,,,,,,,422.17005419999987,None,,,,,,,,,,,,,,,n,5.643854800000554,412.49003059999995,None,418.1525418000001,None,412.49003059999995,None,412.49003059999995,None,412.49003059999995,None,412.49003059999995,None,412.49003059999995,None,412.49003059999995,None,412.49003059999995,None,2,001,2019_Nov_21_1218,MoralSRBinaryChoice,3.2.4,59.82492832971001,
,,DE-EMPHASIZE,EMPHASIZE,"Consider each of the following scenarios and, for each one, determine what course of action you will take.",People drowning in the west: 12,"Probability of alternate 
rescue boat reaching them: 50%","Plan: Change your course to head towards the people in the west, leaving the people in the east to die

Do nothing: The group in the east will live, the group in the west has a chance of surviving","The 6 people in the east lived.

The ","The 6 people in the east died.

The 12 people in the west were saved.",12,50, people in the west,"People drowning in 
the east: 6",015:020,,,,,,,,,,,,,,,,,0,2,2,2,,,,,0,4,4,4,,,,,,,433.0816293000007,None,,,,,,,,,,,,,,,,,,,,,,,,,,,,,435.1001326000005,None,,,,,,,,,,,,,,,y,2.8869388999992225,428.17471189999924,None,431.0800103999991,None,428.17471189999924,None,428.17471189999924,None,428.17471189999924,None,428.17471189999924,None,428.17471189999924,None,428.17471189999924,None,428.17471189999924,None,2,001,2019_Nov_21_1218,MoralSRBinaryChoice,3.2.4,59.82492832971001,
,,DE-EMPHASIZE,EMPHASIZE,,,,,,,,,,,015:020,,,,,,,,,,,,,,,,,0,2,2,2,,,,,,,,,,,,,,,,,,,,,,,,,,,,,,,,,,,,,,,,,,,,,,,,,,,,,,,,,,,,,,,,,,,,,,,,,,,,,,,,,2,001,2019_Nov_21_1218,MoralSRBinaryChoice,3.2.4,59.82492832971001,
,,DE-EMPHASIZE,EMPHASIZE,"• You are operating the switch at a railroad station when you see an empty, out of control boxcar coming down the main track

• It is moving so fast that anyone it hits will die immediately",Repairmen on main track: 6,Probability of evacuation: 35%,"Plan: Hit the switch, redirecting the boxcar onto the sidetrack, killing the repairmen there

Do nothing: The repairmen on the sidetrack will live, the repairmen on the main track have a chance of evacuating","The 3 repairmen on the sidetrack lived.

The ","The 3 repairmen on the sidetrack died.

The 6 repairmen on the track were saved.",6,50, repairmen on the main track,Repairmen on sidetrack: 3,020:025,,,,,,,,,,,,,,,,,0,3,3,3,0,0,0,0,,,,,,,,,,,439.0863582999991,None,,,,,,,,,,,,,,,,,,,,,,,,,,,,,,,,,,,,,,,441.1242748000004,None,space,4.032716400000936,441.1242748000004,None,,,,,,,,,,,,,,,,,,,,,2,001,2019_Nov_21_1218,MoralSRBinaryChoice,3.2.4,59.82492832971001,
,,DE-EMPHASIZE,EMPHASIZE,"• The boxcar is headed towards a tunneled section in which a group of repairmen are working

• You can flip the switch, redirecting the boxcar to a sidetrack on which there is a smaller group of repairman working",Repairmen on main track: 7,Probability of evacuation: 65%,"Plan: Hit the switch, redirecting the boxcar onto the sidetrack, killing the repairmen there

Do nothing: The repairmen on the sidetrack will live, the repairmen on the main track have a chance of evacuating","The 3 repairmen on the sidetrack lived.

The ","The 3 repairmenon the sidetrack died.

The 7 repairmen on the track were saved.",7,35, repairmen on the main track,Repairmen on sidetrack: 3,020:025,,,,,,,,,,,,,,,,,0,3,3,3,0,1,1,1,,,,,,,,,,,,,,,,,,,,,,,,,,,,,,,,,,,,,,,,,,,,,,,,,,,445.20595909999975,None,space,4.431030199999441,445.20595909999975,None,,,,,,,,,,,,,,,,,,,,,2,001,2019_Nov_21_1218,MoralSRBinaryChoice,3.2.4,59.82492832971001,
,,DE-EMPHASIZE,EMPHASIZE,"• If you do nothing, the boxcar will continue toward the repairmen in the tunnel on the main track and kill them all

• If you hit the switch, the repairmen on the main track will be spared but the other repairman on the sidetrack will be hit by the boxcar and will die",Repairmen on main track: 5,Probability of evacuation: 65%,"Plan: Hit the switch, redirecting the boxcar onto the sidetrack, killing the repairmen there

Do nothing: The repairmen on the sidetrack will live, the repairmen on the main track have a chance of evacuating","The 2 repairmen on the sidetrack lived.

The ","The 2 repairmen on the sidetrack died.

The 5 repairmen on the track were saved.",5,65, repairmen on the main track,Repairmen on sidetrack: 2,020:025,,,,,,,,,,,,,,,,,0,3,3,3,0,2,2,2,,,,,,,,,,,,,,,,,,,,,,,,,,,,,,,,,,,,,,,,,,,,,,,,,,,449.7008896999996,None,space,12.44808809999995,449.7008896999996,None,,,,,,,,,,,,,,,,,,,,,2,001,2019_Nov_21_1218,MoralSRBinaryChoice,3.2.4,59.82492832971001,
,,DE-EMPHASIZE,EMPHASIZE,"• You know that there is a chance an alarm on the main track will be triggered in time to alert the repairmen to evacuate before the boxcar arrives

• There is no such alarm on the sidetrack, and therefore no chance the workmen on the sidetrack would evacuate in time",Repairmen on main track: 6,Probability of evacuation:  50%,"Plan: Hit the switch, redirecting the boxcar onto the sidetrack, killing the repairmen there

Do nothing: The repairmen on the sidetrack will live, the repairmen on the main track have a chance of evacuating","The 4 repairmen on the sidetrack lived.

The ","The 4 repairmen on the sidetrack died.

The 6 repairmen on the track were saved.",6,65, repairmen on the main track,Repairmen on sidetrack: 4,020:025,,,,,,,,,,,,,,,,,0,3,3,3,0,3,3,3,,,,,,,,,,,,,,,,,,,,,,,,,,,,,,,,,,,,,,,,,,,,,,,,,,,462.206725,None,space,6.47034739999981,462.206725,None,,,,,,,,,,,,,,,,,,,,,2,001,2019_Nov_21_1218,MoralSRBinaryChoice,3.2.4,59.82492832971001,
,,DE-EMPHASIZE,EMPHASIZE,"Consider each of the following scenarios and, for each one, determine what course of action you will take.",Repairmen on main track: 7,Probability of evacuation: 50%,"Plan: Hit the switch, redirecting the boxcar onto the sidetrack, killing the repairmen there

Do nothing: The repairmen on the sidetrack will live, the repairmen on the main track have a chance of evacuating","The 2 repairmen on the sidetrack lived.

The ","The 2 repairmen on the sidetrack died.

The 7 repairmen on the track were saved.",7,35, repairmen on the main track,Repairmen on sidetrack: 2,020:025,,,,,,,,,,,,,,,,,0,3,3,3,0,4,4,4,,,,,,,,,,,,,,,,,,,,,,,,,,,,,,,,,,,,,,,,,,,,,,,,,,,468.70493499999975,None,space,1.2680743000000803,468.70493499999975,None,,,,,,,,,,,,,,,,,,,,,2,001,2019_Nov_21_1218,MoralSRBinaryChoice,3.2.4,59.82492832971001,
,,DE-EMPHASIZE,EMPHASIZE,"• You are operating the switch at a railroad station when you see an empty, out of control boxcar coming down the main track

• It is moving so fast that anyone it hits will die immediately",Repairmen on main track: 6,Probability of evacuation: 35%,"Plan: Hit the switch, redirecting the boxcar onto the sidetrack, killing the repairmen there

Do nothing: The repairmen on the sidetrack will live, the repairmen on the main track have a chance of evacuating","The 3 repairmen on the sidetrack lived.

The ","The 3 repairmen on the sidetrack died.

The 6 repairmen on the track were saved.",6,50, repairmen on the main track,Repairmen on sidetrack: 3,020:025,,,,,,,,,,,,,,,,,0,3,3,3,,,,,0,0,0,0,,,,,,,491.079753,None,,,,,,,471.9972916000006,None,,,,,,,,,,,,,,,,,,,,,493.0993261000003,None,,,,,,,,,,,,,,,y,7.022315500000332,482.03865360000054,None,489.0781547000006,None,482.03865360000054,None,482.03865360000054,None,482.03865360000054,None,482.03865360000054,None,482.03865360000054,None,482.03865360000054,None,482.03865360000054,None,2,001,2019_Nov_21_1218,MoralSRBinaryChoice,3.2.4,59.82492832971001,
,,DE-EMPHASIZE,EMPHASIZE,"• The boxcar is headed towards a tunneled section in which a group of repairmen are working

• You can flip the switch, redirecting the boxcar to a sidetrack on which there is a smaller group of repairman working",Repairmen on main track: 7,Probability of evacuation: 65%,"Plan: Hit the switch, redirecting the boxcar onto the sidetrack, killing the repairmen there

Do nothing: The repairmen on the sidetrack will live, the repairmen on the main track have a chance of evacuating","The 3 repairmen on the sidetrack lived.

The ","The 3 repairmenon the sidetrack died.

The 7 repairmen on the track were saved.",7,35, repairmen on the main track,Repairmen on sidetrack: 3,020:025,,,,,,,,,,,,,,,,,0,3,3,3,,,,,0,1,1,1,,,,,,,503.339962,None,,,,,,,,,,,,,,,,,,,,,,,,,,,,,505.3597995,None,,,,,,,,,,,,,,,n,2.224689799999396,499.09235719999924,None,501.33821779999926,None,499.09235719999924,None,499.09235719999924,None,499.09235719999924,None,499.09235719999924,None,499.09235719999924,None,499.09235719999924,None,499.09235719999924,None,2,001,2019_Nov_21_1218,MoralSRBinaryChoice,3.2.4,59.82492832971001,
,,DE-EMPHASIZE,EMPHASIZE,"• If you do nothing, the boxcar will continue toward the repairmen in the tunnel on the main track and kill them all

• If you hit the switch, the repairmen on the main track will be spared but the other repairman on the sidetrack will be hit by the boxcar and will die",Repairmen on main track: 5,Probability of evacuation: 65%,"Plan: Hit the switch, redirecting the boxcar onto the sidetrack, killing the repairmen there

Do nothing: The repairmen on the sidetrack will live, the repairmen on the main track have a chance of evacuating","The 2 repairmen on the sidetrack lived.

The ","The 2 repairmen on the sidetrack died.

The 5 repairmen on the track were saved.",5,65, repairmen on the main track,Repairmen on sidetrack: 2,020:025,,,,,,,,,,,,,,,,,0,3,3,3,,,,,0,2,2,2,,,,,,,517.9535037000005,None,,,,,,,,,,,,,,,,,,,,,,,,,,,,,519.9750683000002,None,,,,,,,,,,,,,,,n,4.574829099999988,511.3502482999993,None,515.9502785999994,None,511.3502482999993,None,511.3502482999993,None,511.3502482999993,None,511.3502482999993,None,511.3502482999993,None,511.3502482999993,None,511.3502482999993,None,2,001,2019_Nov_21_1218,MoralSRBinaryChoice,3.2.4,59.82492832971001,
,,DE-EMPHASIZE,EMPHASIZE,"• You know that there is a chance an alarm on the main track will be triggered in time to alert the repairmen to evacuate before the boxcar arrives

• There is no such alarm on the sidetrack, and therefore no chance the workmen on the sidetrack would evacuate in time",Repairmen on main track: 6,Probability of evacuation:  50%,"Plan: Hit the switch, redirecting the boxcar onto the sidetrack, killing the repairmen there

Do nothing: The repairmen on the sidetrack will live, the repairmen on the main track have a chance of evacuating","The 4 repairmen on the sidetrack lived.

The ","The 4 repairmen on the sidetrack died.

The 6 repairmen on the track were saved.",6,65, repairmen on the main track,Repairmen on sidetrack: 4,020:025,,,,,,,,,,,,,,,,,0,3,3,3,,,,,0,3,3,3,,,,,,,533.1813172999991,None,,,,,,,,,,,,,,,,,,,,,,,,,,,,,535.2046205000006,None,,,,,,,,,,,,,,,n,5.186783099999957,525.9702409999991,None,531.1795803999994,None,525.9702409999991,None,525.9702409999991,None,525.9702409999991,None,525.9702409999991,None,525.9702409999991,None,525.9702409999991,None,525.9702409999991,None,2,001,2019_Nov_21_1218,MoralSRBinaryChoice,3.2.4,59.82492832971001,
,,DE-EMPHASIZE,EMPHASIZE,"Consider each of the following scenarios and, for each one, determine what course of action you will take.",Repairmen on main track: 7,Probability of evacuation: 50%,"Plan: Hit the switch, redirecting the boxcar onto the sidetrack, killing the repairmen there

Do nothing: The repairmen on the sidetrack will live, the repairmen on the main track have a chance of evacuating","The 2 repairmen on the sidetrack lived.

The ","The 2 repairmen on the sidetrack died.

The 7 repairmen on the track were saved.",7,35, repairmen on the main track,Repairmen on sidetrack: 2,020:025,,,,,,,,,,,,,,,,,0,3,3,3,,,,,0,4,4,4,,,,,,,549.2445523999995,None,,,,,,,,,,,,,,,,,,,,,,,,,,,,,551.2648210000007,None,,,,,,,,,,,,,,,n,6.021430299999338,541.1995762000006,None,547.2430451,None,541.1995762000006,None,541.1995762000006,None,541.1995762000006,None,541.1995762000006,None,541.1995762000006,None,541.1995762000006,None,541.1995762000006,None,2,001,2019_Nov_21_1218,MoralSRBinaryChoice,3.2.4,59.82492832971001,
,,DE-EMPHASIZE,EMPHASIZE,,,,,,,,,,,020:025,,,,,,,,,,,,,,,,,0,3,3,3,,,,,,,,,,,,,,,,,,,,,,,,,,,,,,,,,,,,,,,,,,,,,,,,,,,,,,,,,,,,,,,,,,,,,,,,,,,,,,,,,2,001,2019_Nov_21_1218,MoralSRBinaryChoice,3.2.4,59.82492832971001,
,,EMPHASIZE,DE-EMPHASIZE,"• You are working in the kitchen of a café, and see a terrorist throw a grenade next to the main dining room, in which a number of customers are eating

• If nothing is done the grenade will explode and the walls of the main dining room will collapse and kill these customers","Customers in main
dining room: 6","Probability customers
will be spared: 35%","Plan: Throw the grenade onto the patio, killing the customers there

Do nothing: The customers on the patio will live, the group in the dining room has a chance of surviving","The 3 customers on the patio lived.

The ","The 3 customers on the patio died.

The 6 customers in the main dining room were saved.",6,35, customers in the main dining room,Customers on the patio: 3,025:030,,,,,,,,,,,,,,,,,0,4,4,4,0,0,0,0,,,,,,,,,,,555.249585399999,None,,,,,,,,,,,,,,,,,,,,,,,,,,,,,,,,,,,,,,,557.305635499999,None,space,5.963350100000753,557.305635499999,None,,,,,,,,,,,,,,,,,,,,,2,001,2019_Nov_21_1218,MoralSRBinaryChoice,3.2.4,59.82492832971001,
,,EMPHASIZE,DE-EMPHASIZE,"• There is only one other location the grenade could be thrown before it explodes, and that is the patio outside of the main dining room

• There are other customers sitting on the patio, and they would certainly be killed if the grenade is thrown there","Customers in main
dining room: 14","Probability customers
will be spared: 50%","Plan: Throw the grenade onto the patio, killing the customers there

Do nothing: The customers on the patio will live, the group in the dining room has a chance of surviving","The 7 customers on the patio lived.

The ","The 7 customers on the patio died.

The 14 customers in the main dining room were saved.",14,50, customers in the main dining room,Customers on the patio: 7,025:030,,,,,,,,,,,,,,,,,0,4,4,4,0,1,1,1,,,,,,,,,,,,,,,,,,,,,,,,,,,,,,,,,,,,,,,,,,,,,,,,,,,563.3242298000005,None,space,4.2807190000003175,563.3242298000005,None,,,,,,,,,,,,,,,,,,,,,2,001,2019_Nov_21_1218,MoralSRBinaryChoice,3.2.4,59.82492832971001,
,,EMPHASIZE,DE-EMPHASIZE,"• You have time to run out and throw the grenade to the patio, without risking any harm to yourself","Customers in main
dining room: 5","Probability customers
will be spared: 35%","Plan: Throw the grenade onto the patio, killing the customers there

Do nothing: The customers on the patio will live, the group in the dining room has a chance of surviving","The 2 customers on the patio lived.

The ","The 2 customers on the patio died.

The 5 customers in the main dining room were saved.",5,50, customers in the main dining room,Customers on the patio: 2,025:030,,,,,,,,,,,,,,,,,0,4,4,4,0,2,2,2,,,,,,,,,,,,,,,,,,,,,,,,,,,,,,,,,,,,,,,,,,,,,,,,,,,567.6375198000005,None,space,2.479541500000778,567.6375198000005,None,,,,,,,,,,,,,,,,,,,,,2,001,2019_Nov_21_1218,MoralSRBinaryChoice,3.2.4,59.82492832971001,
,,EMPHASIZE,DE-EMPHASIZE,"• If you do this, the customers in the dining room will live but the customers on the patio will die 

• You also know that there is a chance that the dining room walls will withstand the blast of the grenade explosion, and the customers would be spared","Customers in main
dining room: 7","Probability customers
will be spared: 65%","Plan: Throw the grenade onto the patio, killing the customers there

Do nothing: The customers on the patio will live, the group in the dining room has a chance of surviving","The 2 customers on the patio lived.

The ","The 2 customers on the patio died.

The 7 customers in the main dining room were saved.",7,35, customers in the main dining room,Customers on the patio: 2,025:030,,,,,,,,,,,,,,,,,0,4,4,4,0,3,3,3,,,,,,,,,,,,,,,,,,,,,,,,,,,,,,,,,,,,,,,,,,,,,,,,,,,570.1800339000001,None,space,8.78492449999976,570.1800339000001,None,,,,,,,,,,,,,,,,,,,,,2,001,2019_Nov_21_1218,MoralSRBinaryChoice,3.2.4,59.82492832971001,
,,EMPHASIZE,DE-EMPHASIZE,"Consider each of the following scenarios and, for each one, determine what course of action you will take.","Customers in main
dining room: 9","Probability customers
will be spared: 50%","Plan: Throw the grenade onto the patio, killing the customers there

Do nothing: The customers on the patio will live, the group in the dining room has a chance of surviving","The 7 customers on the patio lived.

The ","The 7 customers on the patio died.

The 9 customers in the main dining room were saved.",9,65, customers in the main dining room,Customers on the patio: 7,025:030,,,,,,,,,,,,,,,,,0,4,4,4,0,4,4,4,,,,,,,,,,,,,,,,,,,,,,,,,,,,,,,,,,,,,,,,,,,,,,,,,,,578.9972770000004,None,space,0.9117796000009548,578.9972770000004,None,,,,,,,,,,,,,,,,,,,,,2,001,2019_Nov_21_1218,MoralSRBinaryChoice,3.2.4,59.82492832971001,
,,EMPHASIZE,DE-EMPHASIZE,"• You are working in the kitchen of a café, and see a terrorist throw a grenade next to the main dining room, in which a number of customers are eating

• If nothing is done the grenade will explode and the walls of the main dining room will collapse and kill these customers","Customers in main
dining room: 6","Probability customers
will be spared: 35%","Plan: Throw the grenade onto the patio, killing the customers there

Do nothing: The customers on the patio will live, the group in the dining room has a chance of surviving","The 3 customers on the patio lived.

The ","The 3 customers on the patio died.

The 6 customers in the main dining room were saved.",6,35, customers in the main dining room,Customers on the patio: 3,025:030,,,,,,,,,,,,,,,,,0,4,4,4,,,,,0,0,0,0,,,,,,,634.2485761999997,None,,,,,,,581.9384176999993,None,,,,,,,,,,,,,,,,,,,,,636.2695695000002,None,,,,,,,,,,,,,,,n,40.2519857999996,591.9769486999994,None,632.2469548999998,None,591.9769486999994,None,591.9769486999994,None,591.9769486999994,None,591.9769486999994,None,591.9769486999994,None,591.9769486999994,None,591.9769486999994,None,2,001,2019_Nov_21_1218,MoralSRBinaryChoice,3.2.4,59.82492832971001,
,,EMPHASIZE,DE-EMPHASIZE,"• There is only one other location the grenade could be thrown before it explodes, and that is the patio outside of the main dining room

• There are other customers sitting on the patio, and they would certainly be killed if the grenade is thrown there","Customers in main
dining room: 14","Probability customers
will be spared: 50%","Plan: Throw the grenade onto the patio, killing the customers there

Do nothing: The customers on the patio will live, the group in the dining room has a chance of surviving","The 7 customers on the patio lived.

The ","The 7 customers on the patio died.

The 14 customers in the main dining room were saved.",14,50, customers in the main dining room,Customers on the patio: 7,025:030,,,,,,,,,,,,,,,,,0,4,4,4,,,,,0,1,1,1,,,,,,,669.1941179000005,None,,,,,,,,,,,,,,,,,,,,,,,,,,,,,671.2154069999997,None,,,,,,,,,,,,,,,n,24.906166300001132,642.2675486999997,None,667.1925866000001,None,642.2675486999997,None,642.2675486999997,None,642.2675486999997,None,642.2675486999997,None,642.2675486999997,None,642.2675486999997,None,642.2675486999997,None,2,001,2019_Nov_21_1218,MoralSRBinaryChoice,3.2.4,59.82492832971001,
,,EMPHASIZE,DE-EMPHASIZE,"• You have time to run out and throw the grenade to the patio, without risking any harm to yourself","Customers in main
dining room: 5","Probability customers
will be spared: 35%","Plan: Throw the grenade onto the patio, killing the customers there

Do nothing: The customers on the patio will live, the group in the dining room has a chance of surviving","The 2 customers on the patio lived.

The ","The 2 customers on the patio died.

The 5 customers in the main dining room were saved.",5,50, customers in the main dining room,Customers on the patio: 2,025:030,,,,,,,,,,,,,,,,,0,4,4,4,,,,,0,2,2,2,,,,,,,702.2718475999991,None,,,,,,,,,,,,,,,,,,,,,,,,,,,,,704.2939342999998,None,,,,,,,,,,,,,,,n,23.030106399999568,677.2146671999999,None,700.2710592999993,None,677.2146671999999,None,677.2146671999999,None,677.2146671999999,None,677.2146671999999,None,677.2146671999999,None,677.2146671999999,None,677.2146671999999,None,2,001,2019_Nov_21_1218,MoralSRBinaryChoice,3.2.4,59.82492832971001,
,,EMPHASIZE,DE-EMPHASIZE,"• If you do this, the customers in the dining room will live but the customers on the patio will die 

• You also know that there is a chance that the dining room walls will withstand the blast of the grenade explosion, and the customers would be spared","Customers in main
dining room: 7","Probability customers
will be spared: 65%","Plan: Throw the grenade onto the patio, killing the customers there

Do nothing: The customers on the patio will live, the group in the dining room has a chance of surviving","The 2 customers on the patio lived.

The ","The 2 customers on the patio died.

The 7 customers in the main dining room were saved.",7,35, customers in the main dining room,Customers on the patio: 2,025:030,,,,,,,,,,,,,,,,,0,4,4,4,,,,,0,3,3,3,,,,,,,712.9975333000002,None,,,,,,,,,,,,,,,,,,,,,,,,,,,,,715.0187458,None,,,,,,,,,,,,,,,n,0.6792961999999534,710.2854771000002,None,710.9958411000007,None,710.2854771000002,None,710.2854771000002,None,710.2854771000002,None,710.2854771000002,None,710.2854771000002,None,710.2854771000002,None,710.2854771000002,None,2,001,2019_Nov_21_1218,MoralSRBinaryChoice,3.2.4,59.82492832971001,
,,EMPHASIZE,DE-EMPHASIZE,"Consider each of the following scenarios and, for each one, determine what course of action you will take.","Customers in main
dining room: 9","Probability customers
will be spared: 50%","Plan: Throw the grenade onto the patio, killing the customers there

Do nothing: The customers on the patio will live, the group in the dining room has a chance of surviving","The 7 customers on the patio lived.

The ","The 7 customers on the patio died.

The 9 customers in the main dining room were saved.",9,65, customers in the main dining room,Customers on the patio: 7,025:030,,,,,,,,,,,,,,,,,0,4,4,4,,,,,0,4,4,4,,,,,,,729.7281679000007,None,,,,,,,,,,,,,,,,,,,,,,,,,,,,,731.7521773000008,None,,,,,,,,,,,,,,,n,6.682898499999283,721.0179994999999,None,727.7275546000001,None,721.0179994999999,None,721.0179994999999,None,721.0179994999999,None,721.0179994999999,None,721.0179994999999,None,721.0179994999999,None,721.0179994999999,None,2,001,2019_Nov_21_1218,MoralSRBinaryChoice,3.2.4,59.82492832971001,
,,EMPHASIZE,DE-EMPHASIZE,,,,,,,,,,,025:030,,,,,,,,,,,,,,,,,0,4,4,4,,,,,,,,,,,,,,,,,,,,,,,,,,,,,,,,,,,,,,,,,,,,,,,,,,,,,,,,,,,,,,,,,,,,,,,,,,,,,,,,,2,001,2019_Nov_21_1218,MoralSRBinaryChoice,3.2.4,59.82492832971001,
,,EMPHASIZE,DE-EMPHASIZE,"• There has been a bomb planted in two buildings, drawing from the same set of wires

• You are a citizen who has found the wires that control the bomb",Workers in the office building: 4,"Probability the Bomb Squad
will arrive in time: 35%","Plan: Cut the green wire, blowing up the family in the home

Do nothing: The family will live, the office group has a chance of surviving if the Bomb Squad comes ","The 3 family members lived.

The ","The 3 family members in the home died. 

The 4 workers in the office building were saved.",4,65, workers in the office building,"Family members in 
the home: 3",030:035,,,,,,,,,,,,,,,,,0,5,5,5,0,0,0,0,,,,,,,,,,,735.7331704999997,None,,,,,,,,,,,,,,,,,,,,,,,,,,,,,,,,,,,,,,,737.7638396000002,None,space,30.46481429999949,737.7638396000002,None,,,,,,,,,,,,,,,,,,,,,2,001,2019_Nov_21_1218,MoralSRBinaryChoice,3.2.4,59.82492832971001,
,,EMPHASIZE,DE-EMPHASIZE,"• The red wire is connected to the bomb in a small office building, which will explode if that wire is cut

• The green wire is connected to the bomb in a small home, where a family lives, and will explode if that wire is cut ",Workers in the office building: 7,"Probability the Bomb Squad
will arrive in time: 65%","Plan: Cut the green wire, blowing up the family in the home

Do nothing: The family will live, the office group has a chance of surviving if the Bomb Squad comes ","The 4 family members lived.

The ","The 4 family members in the home died. 

The 7 workers in the office building were saved.",7,65, workers in the office building,"Family members in 
the home: 4",030:035,,,,,,,,,,,,,,,,,0,5,5,5,0,1,1,1,,,,,,,,,,,,,,,,,,,,,,,,,,,,,,,,,,,,,,,,,,,,,,,,,,,768.2958581999992,None,space,3.2129993999988073,768.2958581999992,None,,,,,,,,,,,,,,,,,,,,,2,001,2019_Nov_21_1218,MoralSRBinaryChoice,3.2.4,59.82492832971001,
,,EMPHASIZE,DE-EMPHASIZE,"• The time on the bomb is counting down, but you have time to cut one of the wires without risking harm to yourself 

• If you do nothing, the bomb will default to blow up the office building  ",Workers in the office building: 13,"Probability the Bomb Squad
will arrive in time: 50%","Plan: Cut the green wire, blowing up the family in the home

Do nothing: The family will live, the office group has a chance of surviving if the Bomb Squad comes ","The 4 family members lived.

The ","The 4 family members in the home died. 

The 13 workers in the office building were saved.",13,35, workers in the office building,"Family members in 
the home: 4",030:035,,,,,,,,,,,,,,,,,0,5,5,5,0,2,2,2,,,,,,,,,,,,,,,,,,,,,,,,,,,,,,,,,,,,,,,,,,,,,,,,,,,771.5584682999997,None,space,2.6876656000004004,771.5584682999997,None,,,,,,,,,,,,,,,,,,,,,2,001,2019_Nov_21_1218,MoralSRBinaryChoice,3.2.4,59.82492832971001,
,,EMPHASIZE,DE-EMPHASIZE,• You also know that there is a chance that the Bomb Squad will arrive in time to completely disable the bomb,Workers in the office building: 9,"Probability the Bomb Squad
will arrive in time: 50%","Plan: Cut the green wire, blowing up the family in the home

Do nothing: The family will live, the office group has a chance of surviving if the Bomb Squad comes ","The 3 family members lived.

The ","The 3 family members in the home died. 

The 9 workers in the office building were saved.",9,35, workers in the office building,"Family members in 
the home: 3",030:035,,,,,,,,,,,,,,,,,0,5,5,5,0,3,3,3,,,,,,,,,,,,,,,,,,,,,,,,,,,,,,,,,,,,,,,,,,,,,,,,,,,774.2794121000006,None,space,0.8934650000010151,774.2794121000006,None,,,,,,,,,,,,,,,,,,,,,2,001,2019_Nov_21_1218,MoralSRBinaryChoice,3.2.4,59.82492832971001,
,,EMPHASIZE,DE-EMPHASIZE,"Consider each of the following scenarios and, for each one, determine what course of action you will take.",Workers in the office building: 6,"Probability the Bomb Squad
will arrive in time: 50%","Plan: Cut the green wire, blowing up the family in the home

Do nothing: The family will live, the office group has a chance of surviving if the Bomb Squad comes ","The 2 family members lived.

The ","The 2 family members in the home died. 

The 6 workers in the office building were saved.",6,50, workers in the office building,"Family members in 
the home: 2",030:035,,,,,,,,,,,,,,,,,0,5,5,5,0,4,4,4,,,,,,,,,,,,,,,,,,,,,,,,,,,,,,,,,,,,,,,,,,,,,,,,,,,775.2102906,None,space,0.730496399999538,775.2102906,None,,,,,,,,,,,,,,,,,,,,,2,001,2019_Nov_21_1218,MoralSRBinaryChoice,3.2.4,59.82492832971001,
,,EMPHASIZE,DE-EMPHASIZE,"• There has been a bomb planted in two buildings, drawing from the same set of wires

• You are a citizen who has found the wires that control the bomb",Workers in the office building: 4,"Probability the Bomb Squad
will arrive in time: 35%","Plan: Cut the green wire, blowing up the family in the home

Do nothing: The family will live, the office group has a chance of surviving if the Bomb Squad comes ","The 3 family members lived.

The ","The 3 family members in the home died. 

The 4 workers in the office building were saved.",4,65, workers in the office building,"Family members in 
the home: 3",030:035,,,,,,,,,,,,,,,,,0,5,5,5,,,,,0,0,0,0,,,,,,,821.9709149999999,None,,,,,,,777.9676949000004,None,,,,,,,,,,,,,,,,,,,,,823.9914324999991,None,,,,,,,,,,,,,,,n,31.926622099999804,788.0140974999995,None,819.9693176000001,None,788.0140974999995,None,788.0140974999995,None,788.0140974999995,None,788.0140974999995,None,788.0140974999995,None,788.0140974999995,None,788.0140974999995,None,2,001,2019_Nov_21_1218,MoralSRBinaryChoice,3.2.4,59.82492832971001,
,,EMPHASIZE,DE-EMPHASIZE,"• The red wire is connected to the bomb in a small office building, which will explode if that wire is cut

• The green wire is connected to the bomb in a small home, where a family lives, and will explode if that wire is cut ",Workers in the office building: 7,"Probability the Bomb Squad
will arrive in time: 65%","Plan: Cut the green wire, blowing up the family in the home

Do nothing: The family will live, the office group has a chance of surviving if the Bomb Squad comes ","The 4 family members lived.

The ","The 4 family members in the home died. 

The 7 workers in the office building were saved.",7,65, workers in the office building,"Family members in 
the home: 4",030:035,,,,,,,,,,,,,,,,,0,5,5,5,,,,,0,1,1,1,,,,,,,839.3018293999994,None,,,,,,,,,,,,,,,,,,,,,,,,,,,,,841.3191979999992,None,,,,,,,,,,,,,,,n,7.288278199999695,829.9965152999994,None,837.3002221000006,None,829.9965152999994,None,829.9965152999994,None,829.9965152999994,None,829.9965152999994,None,829.9965152999994,None,829.9965152999994,None,829.9965152999994,None,2,001,2019_Nov_21_1218,MoralSRBinaryChoice,3.2.4,59.82492832971001,
,,EMPHASIZE,DE-EMPHASIZE,"• The time on the bomb is counting down, but you have time to cut one of the wires without risking harm to yourself 

• If you do nothing, the bomb will default to blow up the office building  ",Workers in the office building: 13,"Probability the Bomb Squad
will arrive in time: 50%","Plan: Cut the green wire, blowing up the family in the home

Do nothing: The family will live, the office group has a chance of surviving if the Bomb Squad comes ","The 4 family members lived.

The ","The 4 family members in the home died. 

The 13 workers in the office building were saved.",13,35, workers in the office building,"Family members in 
the home: 4",030:035,,,,,,,,,,,,,,,,,0,5,5,5,,,,,0,2,2,2,,,,,,,854.0807616000002,None,,,,,,,,,,,,,,,,,,,,,,,,,,,,,856.1022486000002,None,,,,,,,,,,,,,,,n,4.73449729999993,847.3184990999998,None,852.0790529999995,None,847.3184990999998,None,847.3184990999998,None,847.3184990999998,None,847.3184990999998,None,847.3184990999998,None,847.3184990999998,None,847.3184990999998,None,2,001,2019_Nov_21_1218,MoralSRBinaryChoice,3.2.4,59.82492832971001,
,,EMPHASIZE,DE-EMPHASIZE,• You also know that there is a chance that the Bomb Squad will arrive in time to completely disable the bomb,Workers in the office building: 9,"Probability the Bomb Squad
will arrive in time: 50%","Plan: Cut the green wire, blowing up the family in the home

Do nothing: The family will live, the office group has a chance of surviving if the Bomb Squad comes ","The 3 family members lived.

The ","The 3 family members in the home died. 

The 9 workers in the office building were saved.",9,35, workers in the office building,"Family members in 
the home: 3",030:035,,,,,,,,,,,,,,,,,0,5,5,5,,,,,0,3,3,3,,,,,,,866.5745358000004,None,,,,,,,,,,,,,,,,,,,,,,,,,,,,,868.5924527999996,None,,,,,,,,,,,,,,,n,2.4551527999992686,862.0940205999996,None,864.5727771999991,None,862.0940205999996,None,862.0940205999996,None,862.0940205999996,None,862.0940205999996,None,862.0940205999996,None,862.0940205999996,None,862.0940205999996,None,2,001,2019_Nov_21_1218,MoralSRBinaryChoice,3.2.4,59.82492832971001,
,,EMPHASIZE,DE-EMPHASIZE,"Consider each of the following scenarios and, for each one, determine what course of action you will take.",Workers in the office building: 6,"Probability the Bomb Squad
will arrive in time: 50%","Plan: Cut the green wire, blowing up the family in the home

Do nothing: The family will live, the office group has a chance of surviving if the Bomb Squad comes ","The 2 family members lived.

The ","The 2 family members in the home died. 

The 6 workers in the office building were saved.",6,50, workers in the office building,"Family members in 
the home: 2",030:035,,,,,,,,,,,,,,,,,0,5,5,5,,,,,0,4,4,4,,,,,,,879.4526759,None,,,,,,,,,,,,,,,,,,,,,,,,,,,,,881.4803073999992,None,,,,,,,,,,,,,,,n,2.8335304999982327,874.595089299999,None,877.4514039000005,None,874.595089299999,None,874.595089299999,None,874.595089299999,None,874.595089299999,None,874.595089299999,None,874.595089299999,None,874.595089299999,None,2,001,2019_Nov_21_1218,MoralSRBinaryChoice,3.2.4,59.82492832971001,
,,EMPHASIZE,DE-EMPHASIZE,,,,,,,,,,,030:035,,,,,,,,,,,,,,,,,0,5,5,5,,,,,,,,,,,,,,,,,,,,,,,,,,,,,,,,,,,,,,,,,,,,,,,,,,,,,,,,,,,,,,,,,,,,,,,,,,,,,,,,,2,001,2019_Nov_21_1218,MoralSRBinaryChoice,3.2.4,59.82492832971001,
,,DE-EMPHASIZE,EMPHASIZE,"•You are a worker on a large submarine

• The upper section of the submarine has a hole in it that is gradually letting water in","Passengers in the
submarine: 8","Probability the passengers will 
break open a window: 35%","Plan: Open the hatch, killing the crewmembers there

Do nothing: The crewmembers in the lower section will live, the passengers have a chance of escape","The 4 crewmembers lived.

The ","The 4 crewmembers died.

The group of 8 passengers were saved.",8,35, passengers,"Crewmembers in the 
lower section: 4",035:040,,,,,,,,,,,,,,,,,0,6,6,6,0,0,0,0,,,,,,,,,,,885.4572408999993,None,,,,,,,,,,,,,,,,,,,,,,,,,,,,,,,,,,,,,,,887.5020468000002,None,space,5.3347833000007086,887.5020468000002,None,,,,,,,,,,,,,,,,,,,,,2,001,2019_Nov_21_1218,MoralSRBinaryChoice,3.2.4,59.82492832971001,
,,DE-EMPHASIZE,EMPHASIZE,"• There is a group of passengers in the upper section of the submarine, who are beginning to drown

 • The way out is through the lower section, where a group of crewmembers are working","Passengers in the
submarine: 6","Probability the passengers will 
break open a window: 50%","Plan: Open the hatch, killing the crewmembers there

Do nothing: The crewmembers in the lower section will live, the passengers have a chance of escape","The 5 crewmembers lived.

The  ","The 5 crewmembers died.

The group of 6 passengers were saved.",6,50, passengers,"Crewmembers in the 
lower section: 5",035:040,,,,,,,,,,,,,,,,,0,6,6,6,0,1,1,1,,,,,,,,,,,,,,,,,,,,,,,,,,,,,,,,,,,,,,,,,,,,,,,,,,,892.9032377999993,None,space,5.757536099999925,892.9032377999993,None,,,,,,,,,,,,,,,,,,,,,2,001,2019_Nov_21_1218,MoralSRBinaryChoice,3.2.4,59.82492832971001,
,,DE-EMPHASIZE,EMPHASIZE," • There is an emergency access hatch between the upper and lower sections of the ship

• You can press an emergency switch, which would open the hatch but in doing so would crush and kill the crewmembers who are working below it
","Passengers in the
submarine: 7","Probability the passengers will 
break open a window: 50%","Plan: Open the hatch, killing the crewmembers there

Do nothing: The crewmembers in the lower section will live, the passengers have a chance of escape","The 4 crewmembers lived.

The ","The 4 crewmembers died.

The group of 7 passengers were saved.",7,50, passengers,"Crewmembers in the 
lower section: 4",035:040,,,,,,,,,,,,,,,,,0,6,6,6,0,2,2,2,,,,,,,,,,,,,,,,,,,,,,,,,,,,,,,,,,,,,,,,,,,,,,,,,,,898.7249921999992,None,space,6.256022999999914,898.7249921999992,None,,,,,,,,,,,,,,,,,,,,,2,001,2019_Nov_21_1218,MoralSRBinaryChoice,3.2.4,59.82492832971001,
,,DE-EMPHASIZE,EMPHASIZE,"• There is a chance that one of the passengers will break a window, allowing them to escape and swim to the surface","Passengers in the
submarine: 9","Probability the passengers will 
break open a window: 65%","Plan: Open the hatch, killing the crewmembers there

Do nothing: The crewmembers in the lower section will live, the passengers have a chance of escape","The 8 crewmembers lived.

The ","The 8 crewmembers died.

The group of 9 passengers were saved.",9,65, passengers,"Crewmembers in the 
lower section: 8",035:040,,,,,,,,,,,,,,,,,0,6,6,6,0,3,3,3,,,,,,,,,,,,,,,,,,,,,,,,,,,,,,,,,,,,,,,,,,,,,,,,,,,905.0294138999998,None,space,2.448132199999236,905.0294138999998,None,,,,,,,,,,,,,,,,,,,,,2,001,2019_Nov_21_1218,MoralSRBinaryChoice,3.2.4,59.82492832971001,
,,DE-EMPHASIZE,EMPHASIZE,"Consider each of the following scenarios and, for each one, determine what course of action you will take.","Passengers in the
submarine: 6","Probability the passengers will 
break open a window: 50%","Plan: Open the hatch, killing the crewmembers there

Do nothing: The crewmembers in the lower section will live, the passengers have a chance of escape","The 5 crewmembers lived.

The ","The 5 crewmembers died.

The group of 6 passengers were saved.",6,50, passengers,"Crewmembers in the 
lower section: 4",035:040,,,,,,,,,,,,,,,,,0,6,6,6,0,4,4,4,,,,,,,,,,,,,,,,,,,,,,,,,,,,,,,,,,,,,,,,,,,,,,,,,,,907.5121945999999,None,space,5.724559800000861,907.5121945999999,None,,,,,,,,,,,,,,,,,,,,,2,001,2019_Nov_21_1218,MoralSRBinaryChoice,3.2.4,59.82492832971001,
,,DE-EMPHASIZE,EMPHASIZE,"•You are a worker on a large submarine

• The upper section of the submarine has a hole in it that is gradually letting water in","Passengers in the
submarine: 8","Probability the passengers will 
break open a window: 35%","Plan: Open the hatch, killing the crewmembers there

Do nothing: The crewmembers in the lower section will live, the passengers have a chance of escape","The 4 crewmembers lived.

The ","The 4 crewmembers died.

The group of 8 passengers were saved.",8,35, passengers,"Crewmembers in the 
lower section: 4",035:040,,,,,,,,,,,,,,,,,0,6,6,6,,,,,0,0,0,0,,,,,,,960.8202060000003,None,,,,,,,915.2687403,None,,,,,,,,,,,,,,,,,,,,,962.8449017999992,None,,,,,,,,,,,,,,,y,33.46194149999974,925.3268762999996,None,958.8184765000005,None,925.3268762999996,None,925.3268762999996,None,925.3268762999996,None,925.3268762999996,None,925.3268762999996,None,925.3268762999996,None,925.3268762999996,None,2,001,2019_Nov_21_1218,MoralSRBinaryChoice,3.2.4,59.82492832971001,
,,DE-EMPHASIZE,EMPHASIZE,"• There is a group of passengers in the upper section of the submarine, who are beginning to drown

 • The way out is through the lower section, where a group of crewmembers are working","Passengers in the
submarine: 6","Probability the passengers will 
break open a window: 50%","Plan: Open the hatch, killing the crewmembers there

Do nothing: The crewmembers in the lower section will live, the passengers have a chance of escape","The 5 crewmembers lived.

The  ","The 5 crewmembers died.

The group of 6 passengers were saved.",6,50, passengers,"Crewmembers in the 
lower section: 5",035:040,,,,,,,,,,,,,,,,,0,6,6,6,,,,,0,1,1,1,,,,,,,973.8481064000007,None,,,,,,,,,,,,,,,,,,,,,,,,,,,,,975.8673017000001,None,,,,,,,,,,,,,,,n,2.9784713000008196,968.8501966000003,None,971.8467079999991,None,968.8501966000003,None,968.8501966000003,None,968.8501966000003,None,968.8501966000003,None,968.8501966000003,None,968.8501966000003,None,968.8501966000003,None,2,001,2019_Nov_21_1218,MoralSRBinaryChoice,3.2.4,59.82492832971001,
,,DE-EMPHASIZE,EMPHASIZE," • There is an emergency access hatch between the upper and lower sections of the ship

• You can press an emergency switch, which would open the hatch but in doing so would crush and kill the crewmembers who are working below it
","Passengers in the
submarine: 7","Probability the passengers will 
break open a window: 50%","Plan: Open the hatch, killing the crewmembers there

Do nothing: The crewmembers in the lower section will live, the passengers have a chance of escape","The 4 crewmembers lived.

The ","The 4 crewmembers died.

The group of 7 passengers were saved.",7,50, passengers,"Crewmembers in the 
lower section: 4",035:040,,,,,,,,,,,,,,,,,0,6,6,6,,,,,0,2,2,2,,,,,,,985.5744011000006,None,,,,,,,,,,,,,,,,,,,,,,,,,,,,,987.5902411999996,None,,,,,,,,,,,,,,,n,1.692370500000834,981.8647595999992,None,983.5728765999993,None,981.8647595999992,None,981.8647595999992,None,981.8647595999992,None,981.8647595999992,None,981.8647595999992,None,981.8647595999992,None,981.8647595999992,None,2,001,2019_Nov_21_1218,MoralSRBinaryChoice,3.2.4,59.82492832971001,
,,DE-EMPHASIZE,EMPHASIZE,"• There is a chance that one of the passengers will break a window, allowing them to escape and swim to the surface","Passengers in the
submarine: 9","Probability the passengers will 
break open a window: 65%","Plan: Open the hatch, killing the crewmembers there

Do nothing: The crewmembers in the lower section will live, the passengers have a chance of escape","The 8 crewmembers lived.

The ","The 8 crewmembers died.

The group of 9 passengers were saved.",9,65, passengers,"Crewmembers in the 
lower section: 8",035:040,,,,,,,,,,,,,,,,,0,6,6,6,,,,,0,3,3,3,,,,,,,998.1351188999997,None,,,,,,,,,,,,,,,,,,,,,,,,,,,,,1000.1507829000002,None,,,,,,,,,,,,,,,n,2.513531699998566,993.6032159000006,None,996.1333448000005,None,993.6032159000006,None,993.6032159000006,None,993.6032159000006,None,993.6032159000006,None,993.6032159000006,None,993.6032159000006,None,993.6032159000006,None,2,001,2019_Nov_21_1218,MoralSRBinaryChoice,3.2.4,59.82492832971001,
,,DE-EMPHASIZE,EMPHASIZE,"Consider each of the following scenarios and, for each one, determine what course of action you will take.","Passengers in the
submarine: 6","Probability the passengers will 
break open a window: 50%","Plan: Open the hatch, killing the crewmembers there

Do nothing: The crewmembers in the lower section will live, the passengers have a chance of escape","The 5 crewmembers lived.

The ","The 5 crewmembers died.

The group of 6 passengers were saved.",6,50, passengers,"Crewmembers in the 
lower section: 4",035:040,,,,,,,,,,,,,,,,,0,6,6,6,,,,,0,4,4,4,,,,,,,1010.4284527,None,,,,,,,,,,,,,,,,,,,,,,,,,,,,,1012.4474310999994,None,,,,,,,,,,,,,,,y,2.2401994000010745,1006.1644190000006,None,1008.4271573999995,None,1006.1644190000006,None,1006.1644190000006,None,1006.1644190000006,None,1006.1644190000006,None,1006.1644190000006,None,1006.1644190000006,None,1006.1644190000006,None,2,001,2019_Nov_21_1218,MoralSRBinaryChoice,3.2.4,59.82492832971001,
,,DE-EMPHASIZE,EMPHASIZE,,,,,,,,,,,035:040,,,,,,,,,,,,,,,,,0,6,6,6,,,,,,,,,,,,,,,,,,,,,,,,,,,,,,,,,,,,,,,,,,,,,,,,,,,,,,,,,,,,,,,,,,,,,,,,,,,,,,,,,2,001,2019_Nov_21_1218,MoralSRBinaryChoice,3.2.4,59.82492832971001,
,,EMPHASIZE,DE-EMPHASIZE,"• You are working in a security room of a zoo and can see all of the exhibits through the security cameras

• You see that a group of tourists have gone beyond a safety gate and are now stuck in the right side of a lion enclosure, with a lion gradually approaching them ",Tourists in the enclosure: 11,"Probability the tourists
will escape: 50%","Plan: Throw the bait to the left, leaving the zookeepers to die
Do nothing: The zookeeper will live, the tourists have a chance of escaping up the ladder","The 3 zookeepers lived.

The ","The 3 zookeepers died. 

The 11 tourists in the lion enclosure escaped.",11,35, tourists in the enclosure,Zookeepers in the enclosure: 3,040:045,,,,,,,,,,,,,,,,,0,7,7,7,0,0,0,0,,,,,,,,,,,1016.4353045999997,None,,,,,,,,,,,,,,,,,,,,,,,,,,,,,,,,,,,,,,,1018.4912912,None,space,15.609613999999056,1018.4912912,None,,,,,,,,,,,,,,,,,,,,,2,001,2019_Nov_21_1218,MoralSRBinaryChoice,3.2.4,59.82492832971001,
,,EMPHASIZE,DE-EMPHASIZE,"• You also see that there are also zookeepers at on the left side of the enclosure who are cleaning the area

• You can release bait to get the lion’s attention using your security console, but you can only direct the lion’s attention in one direction",Tourists in the enclosure: 4,"Probability the tourists
will escape: 35%","Plan: Throw the bait to the left, leaving the zookeepers to die
Do nothing: The zookeeper will live, the tourists have a chance of escaping up the ladder","The 2 zookeepers lived.

The ","The 2 zookeepers died. 

The 4 tourists in the lion enclosure escaped.",4,50, tourists in the enclosure,Zookeepers in the enclosure: 2,040:045,,,,,,,,,,,,,,,,,0,7,7,7,0,1,1,1,,,,,,,,,,,,,,,,,,,,,,,,,,,,,,,,,,,,,,,,,,,,,,,,,,,1034.1724739,None,space,1.0323606000001746,1034.1724739,None,,,,,,,,,,,,,,,,,,,,,2,001,2019_Nov_21_1218,MoralSRBinaryChoice,3.2.4,59.82492832971001,
,,EMPHASIZE,DE-EMPHASIZE,"• There is a single ladder in the middle of the enclosure which leads to safety

•  If you throw the bait in the direction of the zookeepers, the lion will definitely attack and kill the zookeepers, but the group will be able to escape to safety ",Tourists in the enclosure: 7,"Probability the tourists
will escape: 65%","Plan: Throw the bait to the left, leaving the zookeepers to die
Do nothing: The zookeeper will live, the tourists have a chance of escaping up the ladder","The 2 zookeepers lived.

The ","The 2 zookeepers died. 

The 7  tourists in the lion enclosure escaped.",7,35, tourists in the enclosure,Zookeepers in the enclosure: 2,040:045,,,,,,,,,,,,,,,,,0,7,7,7,0,2,2,2,,,,,,,,,,,,,,,,,,,,,,,,,,,,,,,,,,,,,,,,,,,,,,,,,,,1035.2714491000006,None,space,0.28534659999968426,1035.2714491000006,None,,,,,,,,,,,,,,,,,,,,,2,001,2019_Nov_21_1218,MoralSRBinaryChoice,3.2.4,59.82492832971001,
,,EMPHASIZE,DE-EMPHASIZE,"• However, there is a chance that the group will make it to the ladder before the lion reaches them. ",Tourists in the enclosure: 8,"Probability the tourists
will escape: 50%","Plan: Throw the bait to the left, leaving the zookeepers to die
Do nothing: The zookeeper will live, the tourists have a chance of escaping up the ladder","The 5 zookeepers lived.

The ","The 5 zookeepers died. 

The 8 tourists in the lion enclosure escaped.",8,65, tourists in the enclosure,Zookeepers in the enclosure: 5,040:045,,,,,,,,,,,,,,,,,0,7,7,7,0,3,3,3,,,,,,,,,,,,,,,,,,,,,,,,,,,,,,,,,,,,,,,,,,,,,,,,,,,1035.5943033000003,None,space,0.5224890999998024,1035.5943033000003,None,,,,,,,,,,,,,,,,,,,,,2,001,2019_Nov_21_1218,MoralSRBinaryChoice,3.2.4,59.82492832971001,
,,EMPHASIZE,DE-EMPHASIZE,"Consider each of the following scenarios and, for each one, determine what course of action you will take.",Tourists in the enclosure: 3,"Probability the tourists
will escape: 65%","Plan: Throw the bait to the left, leaving the zookeepers to die
Do nothing: The zookeeper will live, the tourists have a chance of escaping up the ladder","The 2 zookeepers lived.

The ","The 2 zookeepers died. 

The 3 tourists in the lion enclosure escaped.",3,65, tourists in the enclosure,Zookeepers in the enclosure: 2,040:045,,,,,,,,,,,,,,,,,0,7,7,7,0,4,4,4,,,,,,,,,,,,,,,,,,,,,,,,,,,,,,,,,,,,,,,,,,,,,,,,,,,1036.148075699999,None,space,0.9607204000003549,1036.148075699999,None,,,,,,,,,,,,,,,,,,,,,2,001,2019_Nov_21_1218,MoralSRBinaryChoice,3.2.4,59.82492832971001,
,,EMPHASIZE,DE-EMPHASIZE,"• You are working in a security room of a zoo and can see all of the exhibits through the security cameras

• You see that a group of tourists have gone beyond a safety gate and are now stuck in the right side of a lion enclosure, with a lion gradually approaching them ",Tourists in the enclosure: 11,"Probability the tourists
will escape: 50%","Plan: Throw the bait to the left, leaving the zookeepers to die
Do nothing: The zookeeper will live, the tourists have a chance of escaping up the ladder","The 3 zookeepers lived.

The ","The 3 zookeepers died. 

The 11 tourists in the lion enclosure escaped.",11,35, tourists in the enclosure,Zookeepers in the enclosure: 3,040:045,,,,,,,,,,,,,,,,,0,7,7,7,,,,,0,0,0,0,,,,,,,1066.408441399999,None,,,,,,,1039.1358643999993,None,,,,,,,,,,,,,,,,,,,,,1068.4307697000004,None,,,,,,,,,,,,,,,n,15.203035900000032,1049.1856621000006,None,1064.4067589999995,None,1049.1856621000006,None,1049.1856621000006,None,1049.1856621000006,None,1049.1856621000006,None,1049.1856621000006,None,1049.1856621000006,None,1049.1856621000006,None,2,001,2019_Nov_21_1218,MoralSRBinaryChoice,3.2.4,59.82492832971001,
,,EMPHASIZE,DE-EMPHASIZE,"• You also see that there are also zookeepers at on the left side of the enclosure who are cleaning the area

• You can release bait to get the lion’s attention using your security console, but you can only direct the lion’s attention in one direction",Tourists in the enclosure: 4,"Probability the tourists
will escape: 35%","Plan: Throw the bait to the left, leaving the zookeepers to die
Do nothing: The zookeeper will live, the tourists have a chance of escaping up the ladder","The 2 zookeepers lived.

The ","The 2 zookeepers died. 

The 4 tourists in the lion enclosure escaped.",4,50, tourists in the enclosure,Zookeepers in the enclosure: 2,040:045,,,,,,,,,,,,,,,,,0,7,7,7,,,,,0,1,1,1,,,,,,,1098.3851938999996,None,,,,,,,,,,,,,,,,,,,,,,,,,,,,,1100.4039030000004,None,,,,,,,,,,,,,,,n,21.926042699999016,1074.4305786000004,None,1096.3832915000003,None,1074.4305786000004,None,1074.4305786000004,None,1074.4305786000004,None,1074.4305786000004,None,1074.4305786000004,None,1074.4305786000004,None,1074.4305786000004,None,2,001,2019_Nov_21_1218,MoralSRBinaryChoice,3.2.4,59.82492832971001,
,,EMPHASIZE,DE-EMPHASIZE,"• There is a single ladder in the middle of the enclosure which leads to safety

•  If you throw the bait in the direction of the zookeepers, the lion will definitely attack and kill the zookeepers, but the group will be able to escape to safety ",Tourists in the enclosure: 7,"Probability the tourists
will escape: 65%","Plan: Throw the bait to the left, leaving the zookeepers to die
Do nothing: The zookeeper will live, the tourists have a chance of escaping up the ladder","The 2 zookeepers lived.

The ","The 2 zookeepers died. 

The 7  tourists in the lion enclosure escaped.",7,35, tourists in the enclosure,Zookeepers in the enclosure: 2,040:045,,,,,,,,,,,,,,,,,0,7,7,7,,,,,0,2,2,2,,,,,,,1123.1218939999999,None,,,,,,,,,,,,,,,,,,,,,,,,,,,,,1125.1406296000005,None,,,,,,,,,,,,,,,n,14.691740899999786,1106.4007122999992,None,1121.1203368000006,None,1106.4007122999992,None,1106.4007122999992,None,1106.4007122999992,None,1106.4007122999992,None,1106.4007122999992,None,1106.4007122999992,None,1106.4007122999992,None,2,001,2019_Nov_21_1218,MoralSRBinaryChoice,3.2.4,59.82492832971001,
,,EMPHASIZE,DE-EMPHASIZE,"• However, there is a chance that the group will make it to the ladder before the lion reaches them. ",Tourists in the enclosure: 8,"Probability the tourists
will escape: 50%","Plan: Throw the bait to the left, leaving the zookeepers to die
Do nothing: The zookeeper will live, the tourists have a chance of escaping up the ladder","The 5 zookeepers lived.

The ","The 5 zookeepers died. 

The 8 tourists in the lion enclosure escaped.",8,65, tourists in the enclosure,Zookeepers in the enclosure: 5,040:045,,,,,,,,,,,,,,,,,0,7,7,7,,,,,0,3,3,3,,,,,,,1140.4530589000005,None,,,,,,,,,,,,,,,,,,,,,,,,,,,,,1142.475593699999,None,,,,,,,,,,,,,,,y,7.27178719999938,1131.1489588999993,None,1138.4515334000007,None,1131.1489588999993,None,1131.1489588999993,None,1131.1489588999993,None,1131.1489588999993,None,1131.1489588999993,None,1131.1489588999993,None,1131.1489588999993,None,2,001,2019_Nov_21_1218,MoralSRBinaryChoice,3.2.4,59.82492832971001,
,,EMPHASIZE,DE-EMPHASIZE,"Consider each of the following scenarios and, for each one, determine what course of action you will take.",Tourists in the enclosure: 3,"Probability the tourists
will escape: 65%","Plan: Throw the bait to the left, leaving the zookeepers to die
Do nothing: The zookeeper will live, the tourists have a chance of escaping up the ladder","The 2 zookeepers lived.

The ","The 2 zookeepers died. 

