CueType,rows,CueType2,Picture,practiceLoop.thisRepN,practiceLoop.thisTrialN,practiceLoop.thisN,practiceLoop.thisIndex,trials.thisRepN,trials.thisTrialN,trials.thisN,trials.thisIndex,trials_2.thisRepN,trials_2.thisTrialN,trials_2.thisN,trials_2.thisIndex,mainTrials.thisRepN,mainTrials.thisTrialN,mainTrials.thisN,mainTrials.thisIndex,Instructions.started,Instructions.stopped,space.keys,space.rt,space.started,space.stopped,cue.started,cue.stopped,ISI.started,ISI.stopped,Image.started,Image.stopped,ratingQ.started,ratingQ.stopped,rating.response,rating.rt,rating.started,rating.stopped,text_3.started,text_3.stopped,text_2.started,text_2.stopped,text.started,text.stopped,key_resp.keys,key_resp.rt,key_resp.started,key_resp.stopped,participant,session,date,expName,psychopyVersion,frameRate,
,,,,,,,,,,,,,,,,,,,,21.62739589996636,None,space,1.4621423000935465,21.62739589996636,None,,,,,,,,,,,,,,,,,,,,,,,1,001,2019_Dec_13_1012,FoodRegPavlovia,3.2.4,59.948659939604404,
REACT,0010:0015,REGULATE,FoodPics\F4H\breadtwists.jpg,0,0,0,0,0,0,0,2,,,,,,,,,,,,,,,23.14809609996155,28.14777549984865,28.14777549984865,None,30.31940839998424,None,38.1673404998146,None,2,3.191,0.004189280094578862,None,38.1673404998146,None,43.127036300022155,None,,,,,,,1,001,2019_Dec_13_1012,FoodRegPavlovia,3.2.4,59.948659939604404,
REACT,0010:0015,REGULATE,FoodPics\F4H\banana.jpg,0,0,0,0,0,1,1,1,,,,,,,,,,,,,,,,,,,45.20583039987832,None,53.11873959982768,58.10613109986298,None,None,0.012909560231491923,None,53.11873959982768,None,58.12281269999221,None,,,,,,,1,001,2019_Dec_13_1012,FoodRegPavlovia,3.2.4,59.948659939604404,
REACT,0010:0015,REGULATE,FoodPics\F4H\bagels.jpg,0,0,0,0,0,2,2,0,,,,,,,,,,,,,,,,,,,60.21637069992721,None,68.13075959985144,73.1019907000009,None,None,0.015772460028529167,None,68.13075959985144,None,73.11862530000508,None,,,,,,,1,001,2019_Dec_13_1012,FoodRegPavlovia,3.2.4,59.948659939604404,
REACT,0010:0015,REGULATE,,0,0,0,0,,,,,,,,,,,,,,,,,,,,,,,,,,,,,,,,,,,,,,,,,1,001,2019_Dec_13_1012,FoodRegPavlovia,3.2.4,59.948659939604404,
,,,,,,,,,,,,,,,,,,,,,,,,,,,,,,,,,,,,,,,,,,75.12028809986077,None,space,13.585090700071305,75.12028809986077,None,1,001,2019_Dec_13_1012,FoodRegPavlovia,3.2.4,59.948659939604404,
REGULATE,004:0014,REACT,FoodPics\F4H\cakes.jpg,,,,,,,,,0,0,0,0,0,0,0,0,,,,,,,88.74496409995481,93.7523380999919,93.73588609998114,None,95.80031069996767,None,103.74398989998735,108.71470559993759,None,None,0.015675660222768784,None,103.74398989998735,None,108.7480421999935,None,,,,,,,1,001,2019_Dec_13_1012,FoodRegPavlovia,3.2.4,59.948659939604404,
REGULATE,004:0014,REACT,FoodPics\F4H\cheese.jpg,,,,,,,,,0,0,0,0,0,1,1,1,,,,,,,,,,,110.85276459995657,None,118.73973979987204,123.71055889991112,None,None,0.01568496017716825,None,118.73973979987204,None,123.74388389987871,None,,,,,,,1,001,2019_Dec_13_1012,FoodRegPavlovia,3.2.4,59.948659939604404,
REGULATE,004:0014,REACT,FoodPics\F4H\brownies2.jpg,,,,,,,,,0,0,0,0,0,2,2,2,,,,,,,,,,,125.83716819994152,None,133.735513899941,138.70631029992364,None,None,0.015672860201448202,None,133.735513899941,None,138.73964929999784,None,,,,,,,1,001,2019_Dec_13_1012,FoodRegPavlovia,3.2.4,59.948659939604404,
REGULATE,004:0014,REACT,FoodPics\F4H\cheesepuffs.jpg,,,,,,,,,0,0,0,0,0,3,3,3,,,,,,,,,,,140.82838289998472,None,148.7479570999276,153.7188927999232,None,None,0.015734760090708733,None,148.7479570999276,None,153.7355543000158,None,,,,,,,1,001,2019_Dec_13_1012,FoodRegPavlovia,3.2.4,59.948659939604404,
REGULATE,004:0014,REACT,FoodPics\F4H\chickenkebab.jpg,,,,,,,,,0,0,0,0,0,4,4,4,,,,,,,,,,,155.8088221999351,None,163.74391929991543,168.71435759984888,None,None,0.01574075990356505,None,163.74391929991543,None,168.748023299966,None,,,,,,,1,001,2019_Dec_13_1012,FoodRegPavlovia,3.2.4,59.948659939604404,
REGULATE,004:0014,REACT,FoodPics\F4H\chocballs.jpg,,,,,,,,,0,0,0,0,0,5,5,5,,,,,,,,,,,171.2739701999817,None,178.73934279987589,183.7103071999736,None,None,0.01568216015584767,None,178.73934279987589,None,183.74352469993755,None,,,,,,,1,001,2019_Dec_13_1012,FoodRegPavlovia,3.2.4,59.948659939604404,
REGULATE,004:0014,REACT,FoodPics\F4H\chickennuggs.jpg,,,,,,,,,0,0,0,0,0,6,6,6,,,,,,,,,,,185.8223069999367,None,193.75205909996293,198.72256679995917,None,None,0.01567706000059843,None,193.75205909996293,None,198.73953929985873,None,,,,,,,1,001,2019_Dec_13_1012,FoodRegPavlovia,3.2.4,59.948659939604404,
REGULATE,004:0014,REACT,FoodPics\F4H\chips.jpg,,,,,,,,,0,0,0,0,0,7,7,7,,,,,,,,,,,200.80530239990912,None,208.7477738999296,213.71860309992917,None,None,0.01574896019883454,None,208.7477738999296,None,213.7352807999123,None,,,,,,,1,001,2019_Dec_13_1012,FoodRegPavlovia,3.2.4,59.948659939604404,
REGULATE,004:0014,REACT,FoodPics\F4H\chips2.jpg,,,,,,,,,0,0,0,0,0,8,8,8,,,,,,,,,,,215.79736969992518,None,223.74354689987376,228.71415349980816,None,None,0.015717559959739447,None,223.74354689987376,None,228.74750599986874,None,,,,,,,1,001,2019_Dec_13_1012,FoodRegPavlovia,3.2.4,59.948659939604404,
REGULATE,004:0014,REACT,FoodPics\F4H\chips3.jpg,,,,,,,,,0,0,0,0,0,9,9,9,,,,,,,,,,,230.81123639992438,None,238.73945669992827,243.70991169987246,None,None,0.01541035994887352,None,238.73945669992827,None,243.74327420000918,None,,,,,,,1,001,2019_Dec_13_1012,FoodRegPavlovia,3.2.4,59.948659939604404,
REGULATE,004:0014,REACT,,,,,,,,,,0,0,0,0,,,,,,,,,,,,,,,,,,,,,,,,,,,,,,,,,1,001,2019_Dec_13_1012,FoodRegPavlovia,3.2.4,59.948659939604404,
REACT,0014:0024,REGULATE,FoodPics\F4H\chocolate1.jpg,,,,,,,,,0,1,1,1,0,0,0,0,,,,,,,245.7450295998715,250.7491280999966,250.73237039986998,None,252.80041559995152,None,260.741055799881,265.7114336998202,None,None,0.015656759962439537,None,260.741055799881,None,265.74512769980356,None,,,,,,,1,001,2019_Dec_13_1012,FoodRegPavlovia,3.2.4,59.948659939604404,
REACT,0014:0024,REGULATE,FoodPics\F4H\empanadas.jpg,,,,,,,,,0,1,1,1,0,1,1,1,,,,,,,,,,,268.18505720002577,None,275.7388216999825,280.707373799989,None,None,0.015211460180580616,None,275.7388216999825,None,280.741044400027,None,,,,,,,1,001,2019_Dec_13_1012,FoodRegPavlovia,3.2.4,59.948659939604404,
REACT,0014:0024,REGULATE,FoodPics\F4H\chocolate2.jpg,,,,,,,,,0,1,1,1,0,2,2,2,,,,,,,,,,,282.81060700002126,None,290.74916879995726,295.7200670999009,None,None,0.015737459994852543,None,290.74916879995726,None,295.7365960997995,None,,,,,,,1,001,2019_Dec_13_1012,FoodRegPavlovia,3.2.4,59.948659939604404,
REACT,0014:0024,REGULATE,FoodPics\F4H\chocolates.jpg,,,,,,,,,0,1,1,1,0,3,3,3,,,,,,,,,,,297.80080239987,None,305.7447291999124,310.7158511998132,None,None,0.015711660031229258,None,305.7447291999124,None,310.7493098999839,None,,,,,,,1,001,2019_Dec_13_1012,FoodRegPavlovia,3.2.4,59.948659939604404,
REACT,0014:0024,REGULATE,FoodPics\F4H\cookies.jpg,,,,,,,,,0,1,1,1,0,4,4,4,,,,,,,,,,,312.80921659991145,None,320.7409127999563,325.7112346999347,None,None,0.015570659888908267,None,320.7409127999563,None,325.74483669991605,None,,,,,,,1,001,2019_Dec_13_1012,FoodRegPavlovia,3.2.4,59.948659939604404,
REACT,0014:0024,REGULATE,FoodPics\F4H\croissant.jpg,,,,,,,,,0,1,1,1,0,5,5,5,,,,,,,,,,,327.80460279993713,None,335.73648889991455,340.7070001999382,None,None,0.015730260172858834,None,335.73648889991455,None,340.74066989985295,None,,,,,,,1,001,2019_Dec_13_1012,FoodRegPavlovia,3.2.4,59.948659939604404,
REACT,0014:0024,REGULATE,FoodPics\F4H\donutes.jpg,,,,,,,,,0,1,1,1,0,6,6,6,,,,,,,,,,,342.8010181998834,None,350.7489491000306,355.71975069982,None,None,0.015750660095363855,None,350.7489491000306,None,355.7363712999504,None,,,,,,,1,001,2019_Dec_13_1012,FoodRegPavlovia,3.2.4,59.948659939604404,
REACT,0014:0024,REGULATE,FoodPics\F4H\cracker.jpg,,,,,,,,,0,1,1,1,0,7,7,7,,,,,,,,,,,357.9914189998526,None,365.7446163999848,370.71550049982034,None,None,0.01575586013495922,None,365.7446163999848,None,370.74888959992677,None,,,,,,,1,001,2019_Dec_13_1012,FoodRegPavlovia,3.2.4,59.948659939604404,
REACT,0014:0024,REGULATE,FoodPics\F4H\donuts.jpg,,,,,,,,,0,1,1,1,0,8,8,8,,,,,,,,,,,372.8152263998054,None,380.74043320002966,385.71100719994865,None,None,0.015762560069561005,None,380.74043320002966,None,385.7445284000132,None,,,,,,,1,001,2019_Dec_13_1012,FoodRegPavlovia,3.2.4,59.948659939604404,
REACT,0014:0024,REGULATE,FoodPics\F4H\cake.jpg,,,,,,,,,0,1,1,1,0,9,9,9,,,,,,,,,,,388.1423040998634,None,395.73627029987983,400.7068782998249,None,None,0.015731960302218795,None,395.73627029987983,None,400.7403871999122,None,,,,,,,1,001,2019_Dec_13_1012,FoodRegPavlovia,3.2.4,59.948659939604404,
REACT,0014:0024,REGULATE,,,,,,,,,,0,1,1,1,,,,,,,,,,,,,,,,,,,,,,,,,,,,,,,,,1,001,2019_Dec_13_1012,FoodRegPavlovia,3.2.4,59.948659939604404,
REACT,0024:0034,REGULATE,FoodPics\F4H\donuts2.jpg,,,,,,,,,0,2,2,2,0,0,0,0,,,,,,,402.7420107999351,407.74603479984216,407.7126871999353,None,409.7899764999747,None,417.73787850001827,422.70858659991063,None,None,0.01562945987097919,None,417.73787850001827,None,422.74177179997787,None,,,,,,,1,001,2019_Dec_13_1012,FoodRegPavlovia,3.2.4,59.948659939604404,
REACT,0024:0034,REGULATE,FoodPics\F4H\doritos.jpg,,,,,,,,,0,2,2,2,0,1,1,1,,,,,,,,,,,424.80252699996345,None,432.75038869981654,437.7210307000205,None,None,0.015738760121166706,None,432.75038869981654,None,437.73738049995154,None,,,,,,,1,001,2019_Dec_13_1012,FoodRegPavlovia,3.2.4,59.948659939604404,
REACT,0024:0034,REGULATE,FoodPics\F4H\fries.jpg,,,,,,,,,0,2,2,2,0,2,2,2,,,,,,,,,,,439.7984337999951,None,447.74600739986636,452.7170571000315,None,None,0.015746060060337186,None,447.74600739986636,None,452.7501069998834,None,,,,,,,1,001,2019_Dec_13_1012,FoodRegPavlovia,3.2.4,59.948659939604404,
REACT,0024:0034,REGULATE,FoodPics\F4H\fruittart.jpg,,,,,,,,,0,2,2,2,0,3,3,3,,,,,,,,,,,454.7960307998583,None,462.7416425999254,467.71283299988136,None,None,0.015632160007953644,None,462.7416425999254,None,467.74606279982254,None,,,,,,,1,001,2019_Dec_13_1012,FoodRegPavlovia,3.2.4,59.948659939604404,
REACT,0024:0034,REGULATE,FoodPics\F4H\grapefruit.jpg,,,,,,,,,0,2,2,2,0,4,4,4,,,,,,,,,,,469.80813919985667,None,477.7382910999004,482.70816769986413,None,None,0.015735059743747115,None,477.7382910999004,None,482.7416308999527,None,,,,,,,1,001,2019_Dec_13_1012,FoodRegPavlovia,3.2.4,59.948659939604404,
REACT,0024:0034,REGULATE,FoodPics\F4H\gummybears.jpg,,,,,,,,,0,2,2,2,0,5,5,5,,,,,,,,,,,484.80319250002503,None,492.7498410998378,497.7206238999497,None,None,0.015746260294690728,None,492.7498410998378,None,497.7379707999062,None,,,,,,,1,001,2019_Dec_13_1012,FoodRegPavlovia,3.2.4,59.948659939604404,
REACT,0024:0034,REGULATE,FoodPics\F4H\hamburgers.jpg,,,,,,,,,0,2,2,2,0,6,6,6,,,,,,,,,,,499.7971444998402,None,507.746197699802,512.7170714999083,None,None,0.01571545982733369,None,507.746197699802,None,512.7502041999251,None,,,,,,,1,001,2019_Dec_13_1012,FoodRegPavlovia,3.2.4,59.948659939604404,
REACT,0024:0034,REGULATE,FoodPics\F4H\icecream.jpg,,,,,,,,,0,2,2,2,0,7,7,7,,,,,,,,,,,514.810635099886,None,522.7419881999958,527.7126911999658,None,None,0.015423860168084502,None,522.7419881999958,None,527.7457530000247,None,,,,,,,1,001,2019_Dec_13_1012,FoodRegPavlovia,3.2.4,59.948659939604404,
REACT,0024:0034,REGULATE,FoodPics\F4H\kitkat.jpg,,,,,,,,,0,2,2,2,0,8,8,8,,,,,,,,,,,529.813552599866,None,537.7373850999866,542.7083117999136,None,None,0.01574686006642878,None,537.7373850999866,None,542.7413086998276,None,,,,,,,1,001,2019_Dec_13_1012,FoodRegPavlovia,3.2.4,59.948659939604404,
REACT,0024:0034,REGULATE,FoodPics\F4H\marshmallows.jpg,,,,,,,,,0,2,2,2,0,9,9,9,,,,,,,,,,,544.8040543999523,None,552.749809099827,557.7206005000044,None,None,0.015757060144096613,None,552.749809099827,None,557.7373440999072,None,,,,,,,1,001,2019_Dec_13_1012,FoodRegPavlovia,3.2.4,59.948659939604404,
REACT,0024:0034,REGULATE,,,,,,,,,,0,2,2,2,,,,,,,,,,,,,,,,,,,,,,,,,,,,,,,,,1,001,2019_Dec_13_1012,FoodRegPavlovia,3.2.4,59.948659939604404,
REGULATE,0034:0044,REACT,FoodPics\F4H\muffins.jpg,,,,,,,,,0,3,3,3,0,0,0,0,,,,,,,559.7389652000275,564.7430610998999,564.7264711000025,None,566.7947437998373,None,574.7515412999783,579.7220666999929,None,None,0.01565226004458964,None,574.7515412999783,None,579.738690600032,None,,,,,,,1,001,2019_Dec_13_1012,FoodRegPavlovia,3.2.4,59.948659939604404,
REGULATE,0034:0044,REACT,FoodPics\F4H\oreos.jpg,,,,,,,,,0,3,3,3,0,1,1,1,,,,,,,,,,,581.8060816999059,None,589.7470756999683,594.7179927998222,None,None,0.015756960259750485,None,589.7470756999683,None,594.7514076998923,None,,,,,,,1,001,2019_Dec_13_1012,FoodRegPavlovia,3.2.4,59.948659939604404,
REGULATE,0034:0044,REACT,FoodPics\F4H\pizza.jpg,,,,,,,,,0,3,3,3,0,2,2,2,,,,,,,,,,,596.8205140000209,None,604.742848200025,609.7135773999617,None,None,0.015746260294690728,None,604.742848200025,None,609.7473086998798,None,,,,,,,1,001,2019_Dec_13_1012,FoodRegPavlovia,3.2.4,59.948659939604404,
REGULATE,0034:0044,REACT,FoodPics\F4H\pretzel.jpg,,,,,,,,,0,3,3,3,0,3,3,3,,,,,,,,,,,611.8120204999577,None,619.7386684999801,624.7093495998997,None,None,0.015629960224032402,None,619.7386684999801,None,624.7426483999006,None,,,,,,,1,001,2019_Dec_13_1012,FoodRegPavlovia,3.2.4,59.948659939604404,
REGULATE,0034:0044,REACT,FoodPics\F4H\eclair.jpg,,,,,,,,,0,3,3,3,0,4,4,4,,,,,,,,,,,627.2564359998796,None,634.7512546998914,639.7220453999471,None,None,0.015608260175213218,None,634.7512546998914,None,639.7384702998679,None,,,,,,,1,001,2019_Dec_13_1012,FoodRegPavlovia,3.2.4,59.948659939604404,
REGULATE,0034:0044,REACT,FoodPics\F4H\mm.jpg,,,,,,,,,0,3,3,3,0,5,5,5,,,,,,,,,,,642.0633940999396,None,649.747146199923,654.7175987998489,None,None,0.01568895997479558,None,649.747146199923,None,654.7511675998103,None,,,,,,,1,001,2019_Dec_13_1012,FoodRegPavlovia,3.2.4,59.948659939604404,
REGULATE,0034:0044,REACT,FoodPics\F4H\pretzels.jpg,,,,,,,,,0,3,3,3,0,6,6,6,,,,,,,,,,,656.8008909998462,None,664.7426441998687,669.7133033999708,None,None,0.01556926011107862,None,664.7426441998687,None,669.746736299945,None,,,,,,,1,001,2019_Dec_13_1012,FoodRegPavlovia,3.2.4,59.948659939604404,
REGULATE,0034:0044,REACT,FoodPics\F4H\ritz.jpg,,,,,,,,,0,3,3,3,0,7,7,7,,,,,,,,,,,671.8201528999489,None,679.7386807999574,684.7121480999049,None,None,0.015371059998869896,None,679.7386807999574,None,684.7456963998266,None,,,,,,,1,001,2019_Dec_13_1012,FoodRegPavlovia,3.2.4,59.948659939604404,
REGULATE,0034:0044,REACT,FoodPics\F4H\strawberries.jpg,,,,,,,,,0,3,3,3,0,8,8,8,,,,,,,,,,,686.9540864999872,None,694.7516322999727,699.7217550999485,None,None,0.01547525986097753,None,694.7516322999727,None,699.738044400001,None,,,,,,,1,001,2019_Dec_13_1012,FoodRegPavlovia,3.2.4,59.948659939604404,
REGULATE,0034:0044,REACT,FoodPics\F4H\chocbar.jpg,,,,,,,,,0,3,3,3,0,9,9,9,,,,,,,,,,,702.5172003998887,None,709.7463510998059,714.717363299802,None,None,0.01574675994925201,None,709.7463510998059,None,714.7505278999452,None,,,,,,,1,001,2019_Dec_13_1012,FoodRegPavlovia,3.2.4,59.948659939604404,
REGULATE,0034:0044,REACT,,,,,,,,,,0,3,3,3,,,,,,,,,,,,,,,,,,,,,,,,,,,,,,,,,1,001,2019_Dec_13_1012,FoodRegPavlovia,3.2.4,59.948659939604404,
REGULATE,0044:0054,REACT,FoodPics\F4H\strawberries2.jpg,,,,,,,,,0,4,4,4,0,0,0,0,,,,,,,716.7353711000178,721.739814599976,721.7063266998157,None,723.7845575998072,None,731.7479753999505,736.7187625998631,None,None,0.01561686024069786,None,731.7479753999505,None,736.7356057998259,None,,,,,,,1,001,2019_Dec_13_1012,FoodRegPavlovia,3.2.4,59.948659939604404,
REGULATE,0044:0054,REACT,FoodPics\F4H\sushi.jpg,,,,,,,,,0,4,4,4,0,1,1,1,,,,,,,,,,,738.8087219998706,None,746.7436056998558,751.7142631998286,None,None,0.015747860074043274,None,746.7436056998558,None,751.7478277999908,None,,,,,,,1,001,2019_Dec_13_1012,FoodRegPavlovia,3.2.4,59.948659939604404,
REGULATE,0044:0054,REACT,FoodPics\F4H\watermelon.jpg,,,,,,,,,0,4,4,4,0,2,2,2,,,,,,,,,,,753.806850399822,None,761.7394423999358,766.7104228998069,None,None,0.015737059991806746,None,761.7394423999358,None,766.7435405999422,None,,,,,,,1,001,2019_Dec_13_1012,FoodRegPavlovia,3.2.4,59.948659939604404,
REGULATE,0044:0054,REACT,FoodPics\F4H\pineapple.jpg,,,,,,,,,0,4,4,4,0,3,3,3,,,,,,,,,,,768.8054245999083,None,776.75192589988,781.7227071998641,None,None,0.015704559860751033,None,776.75192589988,None,781.7393802998122,None,,,,,,,1,001,2019_Dec_13_1012,FoodRegPavlovia,3.2.4,59.948659939604404,
REGULATE,0044:0054,REACT,FoodPics\F4H\pretzelsticks.jpg,,,,,,,,,0,4,4,4,0,4,4,4,,,,,,,,,,,783.8038196999114,None,791.7477539000101,796.7186364999507,None,None,0.015713660046458244,None,791.7477539000101,None,796.7352148999926,None,,,,,,,1,001,2019_Dec_13_1012,FoodRegPavlovia,3.2.4,59.948659939604404,
REGULATE,0044:0054,REACT,FoodPics\F4H\steak.jpg,,,,,,,,,0,4,4,4,0,5,5,5,,,,,,,,,,,798.7961458999198,None,806.7433044998907,811.7144332998432,None,None,0.01574596017599106,None,806.7433044998907,None,811.7477225998882,None,,,,,,,1,001,2019_Dec_13_1012,FoodRegPavlovia,3.2.4,59.948659939604404,
REGULATE,0044:0054,REACT,FoodPics\F4H\candy.jpg,,,,,,,,,0,4,4,4,0,6,6,6,,,,,,,,,,,813.8078405000269,None,821.7392221998889,826.710046999855,None,None,0.01569506013765931,None,821.7392221998889,None,826.7433107998222,None,,,,,,,1,001,2019_Dec_13_1012,FoodRegPavlovia,3.2.4,59.948659939604404,
REGULATE,0044:0054,REACT,FoodPics\F4H\bread.jpg,,,,,,,,,0,4,4,4,0,7,7,7,,,,,,,,,,,828.805032499833,None,836.7352742999792,841.7057791999541,None,None,0.015596760204061866,None,836.7352742999792,None,841.7391135999933,None,,,,,,,1,001,2019_Dec_13_1012,FoodRegPavlovia,3.2.4,59.948659939604404,
REGULATE,0044:0054,REACT,FoodPics\F4H\wafers.jpg,,,,,,,,,0,4,4,4,0,8,8,8,,,,,,,,,,,844.0650382998865,None,851.7475341998506,856.7183614999522,None,None,0.01565516018308699,None,851.7475341998506,None,856.7515644999221,None,,,,,,,1,001,2019_Dec_13_1012,FoodRegPavlovia,3.2.4,59.948659939604404,
REGULATE,0044:0054,REACT,FoodPics\F4H\cookies2.jpg,,,,,,,,,0,4,4,4,0,9,9,9,,,,,,,,,,,858.8052981998771,None,866.7434028999414,871.7142739000265,None,None,0.015619460260495543,None,866.7434028999414,None,871.7473978998605,None,,,,,,,1,001,2019_Dec_13_1012,FoodRegPavlovia,3.2.4,59.948659939604404,
REGULATE,0044:0054,REACT,,,,,,,,,,0,4,4,4,,,,,,,,,,,,,,,,,,,,,,,,,,,,,,,,,1,001,2019_Dec_13_1012,FoodRegPavlovia,3.2.4,59.948659939604404,
REACT,0054:0064,REGULATE,FoodPics\F4H\sunchips.jpg,,,,,,,,,0,5,5,5,0,0,0,0,,,,,,,873.7490496998653,878.7532342998311,878.7366869000252,None,880.8026970999781,None,888.7447956998367,893.715698099928,None,None,0.01565836020745337,None,888.7447956998367,None,893.7490912999492,None,,,,,,,1,001,2019_Dec_13_1012,FoodRegPavlovia,3.2.4,59.948659939604404,
REACT,0054:0064,REGULATE,FoodPics\F4H\sushi2.jpg,,,,,,,,,0,5,5,5,0,1,1,1,,,,,,,,,,,895.809762199875,None,903.7406425999943,908.7121492000297,None,None,0.015759960282593966,None,903.7406425999943,None,908.7448286998551,None,,,,,,,1,001,2019_Dec_13_1012,FoodRegPavlovia,3.2.4,59.948659939604404,
REACT,0054:0064,REGULATE,FoodPics\F4H\croissants.jpg,,,,,,,,,0,5,5,5,0,2,2,2,,,,,,,,,,,910.8056123999413,None,918.7365656998008,923.7072936999612,None,None,0.015573659911751747,None,918.7365656998008,None,923.7404715998564,None,,,,,,,1,001,2019_Dec_13_1012,FoodRegPavlovia,3.2.4,59.948659939604404,
REACT,0054:0064,REGULATE,FoodPics\F4H\grapes.jpg,,,,,,,,,0,5,5,5,0,3,3,3,,,,,,,,,,,926.0823311000131,None,933.7488537000027,938.7205719000194,None,None,0.015764759853482246,None,933.7488537000027,None,938.737584099872,None,,,,,,,1,001,2019_Dec_13_1012,FoodRegPavlovia,3.2.4,59.948659939604404,
REACT,0054:0064,REGULATE,FoodPics\F4H\meatballs.jpg,,,,,,,,,0,5,5,5,0,4,4,4,,,,,,,,,,,940.874204599997,None,948.7447573998943,953.7151432000101,None,None,0.015755160013213754,None,948.7447573998943,None,953.7489108999725,None,,,,,,,1,001,2019_Dec_13_1012,FoodRegPavlovia,3.2.4,59.948659939604404,
REACT,0054:0064,REGULATE,FoodPics\F4H\cornbread.jpg,,,,,,,,,0,5,5,5,0,5,5,5,,,,,,,,,,,955.810827499954,None,963.7402730998583,968.7112863999791,None,None,0.015712160151451826,None,963.7402730998583,None,968.74444889999,None,,,,,,,1,001,2019_Dec_13_1012,FoodRegPavlovia,3.2.4,59.948659939604404,
REACT,0054:0064,REGULATE,FoodPics\F4H\icecream2.jpg,,,,,,,,,0,5,5,5,0,6,6,6,,,,,,,,,,,970.8022590999026,None,978.7360757999122,983.7069790000096,None,None,0.01575535978190601,None,978.7360757999122,None,983.7403714999091,None,,,,,,,1,001,2019_Dec_13_1012,FoodRegPavlovia,3.2.4,59.948659939604404,
REACT,0054:0064,REGULATE,FoodPics\F4H\muffins2.jpg,,,,,,,,,0,5,5,5,0,7,7,7,,,,,,,,,,,985.8003353998065,None,993.7487107999623,998.7195303000044,None,None,0.015704960096627474,None,993.7487107999623,None,998.7361671000253,None,,,,,,,1,001,2019_Dec_13_1012,FoodRegPavlovia,3.2.4,59.948659939604404,
REACT,0054:0064,REGULATE,FoodPics\F4H\turnovers.jpg,,,,,,,,,0,5,5,5,0,8,8,8,,,,,,,,,,,1001.2010437999852,None,1008.7444095998071,1013.7154331000056,None,None,0.0157672599889338,None,1008.7444095998071,None,1013.7484520999715,None,,,,,,,1,001,2019_Dec_13_1012,FoodRegPavlovia,3.2.4,59.948659939604404,
REACT,0054:0064,REGULATE,,,,,,,,,,0,5,5,5,,,,,,,,,,,,,,,,,,,,,,,,,,,,,,,,,1,001,2019_Dec_13_1012,FoodRegPavlovia,3.2.4,59.948659939604404,
