Rows,CueType1,CueType2,nReps1,nReps2,CueLoop.thisRepN,CueLoop.thisTrialN,CueLoop.thisN,CueLoop.thisIndex,randomPresent.thisRepN,randomPresent.thisTrialN,randomPresent.thisN,randomPresent.thisIndex,SelfishGiver.thisRepN,SelfishGiver.thisTrialN,SelfishGiver.thisN,SelfishGiver.thisIndex,GenerousGiver.thisRepN,GenerousGiver.thisTrialN,GenerousGiver.thisN,GenerousGiver.thisIndex,Instructions.started,Instructions.stopped,begin.keys,begin.rt,begin.started,begin.stopped,isiText.started,isiText.stopped,cueText.started,cueText.stopped,sendInstructions.started,sendInstructions.stopped,Player1Name.started,Player1Name.stopped,Player1Pic.started,Player1Pic.stopped,enter.keys,enter.rt,enter.started,enter.stopped,text.started,text.stopped,typedWord,dollarSign.started,dollarSign.stopped,Feedback.started,Feedback.stopped,sendInst2.started,sendInst2.stopped,Player2Name.started,Player2Name.stopped,Player2Pic.started,Player2Pic.stopped,text_2.started,text_2.stopped,enter2.keys,enter2.rt,enter2.started,enter2.stopped,dollar2.started,dollar2.stopped,Feedback2.started,Feedback2.stopped,participant,session,date,expName,psychopyVersion,frameRate,
,,,,,,,,,,,,,,,,,,,,,7.3776316998992115,None,space,3.356719500152394,7.3776316998992115,None,,,,,,,,,,,,,,,,,,,,,,,,,,,,,,,,,,,,,,1,001,2019_Nov_14_1327,TrustGame,3.2.4,59.85221290540454,
000:010,REGULATE,REACT,1,0,0,0,0,0,0,0,0,7,0,0,0,0,,,,,,,,,,,17.763935799943283,None,12.778534800047055,None,19.89611730002798,None,19.89611730002798,None,19.89611730002798,None,return,6.070559300016612,19.89611730002798,None,19.89611730002798,None,5,19.89611730002798,None,26.01875020004809,None,,,,,,,,,,,,,,,,,1,001,2019_Nov_14_1327,TrustGame,3.2.4,59.85221290540454,
000:010,REGULATE,REACT,1,0,0,0,0,0,0,0,0,7,,,,,,,,,,,,,,,30.508144499966875,None,,,,,,,,,,,,,,,,,,,,,,,,,,,,,,,,,,,,1,001,2019_Nov_14_1327,TrustGame,3.2.4,59.85221290540454,
000:010,REGULATE,REACT,1,0,0,0,0,0,0,1,1,6,0,0,0,0,,,,,,,,,,,,,,,32.503487299894914,None,32.503487299894914,None,32.503487299894914,None,return,11.110841099871323,32.503487299894914,None,32.503487299894914,None,2,32.503487299894914,None,43.65618190006353,None,,,,,,,,,,,,,,,,,1,001,2019_Nov_14_1327,TrustGame,3.2.4,59.85221290540454,
000:010,REGULATE,REACT,1,0,0,0,0,0,0,1,1,6,,,,,,,,,,,,,,,48.155993399908766,None,,,,,,,,,,,,,,,,,,,,,,,,,,,,,,,,,,,,1,001,2019_Nov_14_1327,TrustGame,3.2.4,59.85221290540454,
000:010,REGULATE,REACT,0,1,0,0,0,0,0,2,2,1,,,,,0,0,0,0,,,,,,,50.140643999911845,None,,,,,,,,,,,,,,,5,,,,,52.20261489995755,None,52.20261489995755,None,52.20261489995755,None,52.20261489995755,None,return,7.33162930002436,52.20261489995755,None,52.20261489995755,None,59.61461380007677,None,1,001,2019_Nov_14_1327,TrustGame,3.2.4,59.85221290540454,
000:010,REGULATE,REACT,0,1,0,0,0,0,0,2,2,1,,,,,,,,,,,,,,,,,,,,,,,,,,,,,,,,,,,,,,,,,,,,,,,,,,,,1,001,2019_Nov_14_1327,TrustGame,3.2.4,59.85221290540454,
000:010,REGULATE,REACT,0,1,0,0,0,0,0,3,3,0,,,,,0,0,0,0,,,,,,,63.58552660001442,None,,,,,,,,,,,,,,,3,,,,,65.58308820007369,None,65.58308820007369,None,65.58308820007369,None,65.58308820007369,None,return,10.7034034000244,65.58308820007369,None,65.58308820007369,None,76.34704339993186,None,1,001,2019_Nov_14_1327,TrustGame,3.2.4,59.85221290540454,
000:010,REGULATE,REACT,0,1,0,0,0,0,0,3,3,0,,,,,,,,,,,,,,,,,,,,,,,,,,,,,,,,,,,,,,,,,,,,,,,,,,,,1,001,2019_Nov_14_1327,TrustGame,3.2.4,59.85221290540454,
000:010,REGULATE,REACT,1,0,0,0,0,0,0,4,4,2,0,0,0,0,,,,,,,,,,,,,,,80.34379610000178,None,80.34379610000178,None,80.34379610000178,None,return,8.054432099917904,80.34379610000178,None,80.34379610000178,None,3,80.34379610000178,None,88.44521920010448,None,,,,,,,,,,,,,,,,,1,001,2019_Nov_14_1327,TrustGame,3.2.4,59.85221290540454,
000:010,REGULATE,REACT,1,0,0,0,0,0,0,4,4,2,,,,,,,,,,,,,,,92.94322060002014,None,,,,,,,,,,,,,,,,,,,,,,,,,,,,,,,,,,,,1,001,2019_Nov_14_1327,TrustGame,3.2.4,59.85221290540454,
000:010,REGULATE,REACT,0,1,0,0,0,0,0,5,5,4,,,,,0,0,0,0,,,,,,,94.9280548999086,None,,,,,,,,,,,,,,,3,,,,,96.93741420004517,None,96.93741420004517,None,96.93741420004517,None,96.93741420004517,None,return,2.197113399859518,96.93741420004517,None,96.93741420004517,None,99.19366950006224,None,1,001,2019_Nov_14_1327,TrustGame,3.2.4,59.85221290540454,
000:010,REGULATE,REACT,0,1,0,0,0,0,0,5,5,4,,,,,,,,,,,,,,,,,,,,,,,,,,,,,,,,,,,,,,,,,,,,,,,,,,,,1,001,2019_Nov_14_1327,TrustGame,3.2.4,59.85221290540454,
000:010,REGULATE,REACT,1,0,0,0,0,0,0,6,6,9,0,0,0,0,,,,,,,,,,,,,,,103.1947041999083,None,103.1947041999083,None,103.1947041999083,None,return,6.835681000025943,103.1947041999083,None,103.1947041999083,None,4,103.1947041999083,None,110.07725499989465,None,,,,,,,,,,,,,,,,,1,001,2019_Nov_14_1327,TrustGame,3.2.4,59.85221290540454,
000:010,REGULATE,REACT,1,0,0,0,0,0,0,6,6,9,,,,,,,,,,,,,,,114.57770749996416,None,,,,,,,,,,,,,,,,,,,,,,,,,,,,,,,,,,,,1,001,2019_Nov_14_1327,TrustGame,3.2.4,59.85221290540454,
000:010,REGULATE,REACT,0,1,0,0,0,0,0,7,7,5,,,,,0,0,0,0,,,,,,,116.56347219995223,None,,,,,,,,,,,,,,,5,,,,,118.57261850009672,None,118.57261850009672,None,118.57261850009672,None,118.57261850009672,None,return,2.1937192999757826,118.57261850009672,None,118.57261850009672,None,120.81059850007296,None,1,001,2019_Nov_14_1327,TrustGame,3.2.4,59.85221290540454,
000:010,REGULATE,REACT,0,1,0,0,0,0,0,7,7,5,,,,,,,,,,,,,,,,,,,,,,,,,,,,,,,,,,,,,,,,,,,,,,,,,,,,1,001,2019_Nov_14_1327,TrustGame,3.2.4,59.85221290540454,
000:010,REGULATE,REACT,0,1,0,0,0,0,0,8,8,3,,,,,0,0,0,0,,,,,,,124.80288260011002,None,,,,,,,,,,,,,,,4,,,,,126.79414690006524,None,126.79414690006524,None,126.79414690006524,None,126.79414690006524,None,return,5.764086300041527,126.79414690006524,None,126.79414690006524,None,132.60958290006965,None,1,001,2019_Nov_14_1327,TrustGame,3.2.4,59.85221290540454,
000:010,REGULATE,REACT,0,1,0,0,0,0,0,8,8,3,,,,,,,,,,,,,,,,,,,,,,,,,,,,,,,,,,,,,,,,,,,,,,,,,,,,1,001,2019_Nov_14_1327,TrustGame,3.2.4,59.85221290540454,
000:010,REGULATE,REACT,1,0,0,0,0,0,0,9,9,8,0,0,0,0,,,,,,,,,,,,,,,136.6089391000569,None,136.6089391000569,None,136.6089391000569,None,return,2.8936298999469727,136.6089391000569,None,136.6089391000569,None,3,136.6089391000569,None,139.55317769991234,None,,,,,,,,,,,,,,,,,1,001,2019_Nov_14_1327,TrustGame,3.2.4,59.85221290540454,
000:010,REGULATE,REACT,1,0,0,0,0,0,0,9,9,8,,,,,,,,,,,,,,,144.05226769996807,None,,,,,,,,,,,,,,,,,,,,,,,,,,,,,,,,,,,,1,001,2019_Nov_14_1327,TrustGame,3.2.4,59.85221290540454,
000:010,REGULATE,REACT,,,0,0,0,0,,,,,,,,,,,,,,,,,,,,,,,,,,,,,,,,,,,,,,,,,,,,,,,,,,,,,,,,1,001,2019_Nov_14_1327,TrustGame,3.2.4,59.85221290540454,
041:050,REGULATE,REACT,0,0,0,1,1,4,0,0,0,6,,,,,,,,,,,,,,,155.0444765998982,None,148.03910599998198,None,,,,,,,,,,,,,,,,,,,,,,,,,,,,,,,,,,1,001,2019_Nov_14_1327,TrustGame,3.2.4,59.85221290540454,
041:050,REGULATE,REACT,0,0,0,1,1,4,0,1,1,5,,,,,,,,,,,,,,,157.04629010008648,None,,,,,,,,,,,,,,,,,,,,,,,,,,,,,,,,,,,,1,001,2019_Nov_14_1327,TrustGame,3.2.4,59.85221290540454,
,,,,,,,,,,,,,,,,,,,,,,,,,,,,,,,159.05831269989721,None,159.05831269989721,None,159.05831269989721,None,return,7.3720656000077724,159.05831269989721,None,159.05831269989721,None,2,159.05831269989721,None,,,,,,,,,,,,,,,,,,,,,,,,,
