Rows,CueType1,CueType2,nReps1,Player1Var,Player2Var,nReps2,CueLoop.thisRepN,CueLoop.thisTrialN,CueLoop.thisN,CueLoop.thisIndex,randomlyPresent.thisRepN,randomlyPresent.thisTrialN,randomlyPresent.thisN,randomlyPresent.thisIndex,SelfishGiver.thisRepN,SelfishGiver.thisTrialN,SelfishGiver.thisN,SelfishGiver.thisIndex,GenerousGiver.thisRepN,GenerousGiver.thisTrialN,GenerousGiver.thisN,GenerousGiver.thisIndex,Instructions.started,Instructions.stopped,begin.keys,begin.rt,begin.started,begin.stopped,isiText.started,isiText.stopped,cueText.started,cueText.stopped,sendInst2.started,sendInst2.stopped,Player2Name.started,Player2Name.stopped,Player2Pic.started,Player2Pic.stopped,text_2.started,text_2.stopped,enter2.keys,enter2.rt,enter2.started,enter2.stopped,typedWord,dollar2.started,dollar2.stopped,Feedback2.started,Feedback2.stopped,sendInstructions.started,sendInstructions.stopped,Player1Name.started,Player1Name.stopped,Player1Pic.started,Player1Pic.stopped,enter.keys,enter.rt,enter.started,enter.stopped,text.started,text.stopped,dollarSign.started,dollarSign.stopped,Feedback.started,Feedback.stopped,participant,session,date,expName,psychopyVersion,frameRate,
,,,,,,,,,,,,,,,,,,,,,,,15.902842000126839,None,space,5.076153200119734,15.902842000126839,None,,,,,,,,,,,,,,,,,,,,,,,,,,,,,,,,,,,,,,1,001,2019_Dec_12_0912,TrustGame,3.2.4,60.13424372781901,
000:010,REGULATE,REACT,0,Player 1,Player 2,1,0,0,0,0,0,0,0,6,,,,,0,0,0,0,,,,,,,36.39822640013881,None,23.022088499972597,None,32.10472230007872,None,32.10472230007872,None,32.10472230007872,None,32.10472230007872,None,return,4.266624299809337,32.10472230007872,None,3,32.10472230007872,None,38.42379050003365,None,,,,,,,,,,,,,,,,,1,001,2019_Dec_12_0912,TrustGame,3.2.4,60.13424372781901,
000:010,REGULATE,REACT,0,Player 1,Player 2,1,0,0,0,0,0,0,0,6,,,,,,,,,,,,,,,,,,,,,,,,,,,,,,,,,,,,,,,,,,,,,,,,,,,,1,001,2019_Dec_12_0912,TrustGame,3.2.4,60.13424372781901,
000:010,REGULATE,REACT,0,Player 1,Player 2,1,0,0,0,0,0,1,1,0,,,,,0,0,0,0,,,,,,,47.89049970009364,None,,,45.41118329996243,None,45.41118329996243,None,45.41118329996243,None,45.41118329996243,None,return,2.4638380999676883,45.41118329996243,None,2,45.41118329996243,None,49.9090937001165,None,,,,,,,,,,,,,,,,,1,001,2019_Dec_12_0912,TrustGame,3.2.4,60.13424372781901,
000:010,REGULATE,REACT,0,Player 1,Player 2,1,0,0,0,0,0,1,1,0,,,,,,,,,,,,,,,,,,,,,,,,,,,,,,,,,,,,,,,,,,,,,,,,,,,,1,001,2019_Dec_12_0912,TrustGame,3.2.4,60.13424372781901,
000:010,REGULATE,REACT,1,Player 1,Player 2,0,0,0,0,0,0,2,2,2,0,0,0,0,,,,,,,,,,,56.99825150007382,None,,,,,,,,,,,,,,,2,,,,,54.94091030000709,None,54.94091030000709,None,54.94091030000709,None,return,2.039067099802196,54.94091030000709,None,54.94091030000709,None,54.94091030000709,None,59.01544180000201,None,1,001,2019_Dec_12_0912,TrustGame,3.2.4,60.13424372781901,
000:010,REGULATE,REACT,1,Player 1,Player 2,0,0,0,0,0,0,2,2,2,,,,,,,,,,,,,,,64.00413260003552,None,,,,,,,,,,,,,,,,,,,,,,,,,,,,,,,,,,,,1,001,2019_Dec_12_0912,TrustGame,3.2.4,60.13424372781901,
000:010,REGULATE,REACT,0,Player 1,Player 2,1,0,0,0,0,0,3,3,4,,,,,0,0,0,0,,,,,,,70.37619880004786,None,,,68.01190689997748,None,68.01190689997748,None,68.01190689997748,None,68.01190689997748,None,return,2.342983999988064,68.01190689997748,None,4,68.01190689997748,None,72.39300930011086,None,,,,,,,,,,,,,,,,,1,001,2019_Dec_12_0912,TrustGame,3.2.4,60.13424372781901,
000:010,REGULATE,REACT,0,Player 1,Player 2,1,0,0,0,0,0,3,3,4,,,,,,,,,,,,,,,,,,,,,,,,,,,,,,,,,,,,,,,,,,,,,,,,,,,,1,001,2019_Dec_12_0912,TrustGame,3.2.4,60.13424372781901,
000:010,REGULATE,REACT,1,Player 1,Player 2,0,0,0,0,0,0,4,4,5,0,0,0,0,,,,,,,,,,,79.33363880007528,None,,,,,,,,,,,,,,,4,,,,,77.38940660003573,None,77.38940660003573,None,77.38940660003573,None,return,1.9260792001150548,77.38940660003573,None,77.38940660003573,None,77.38940660003573,None,81.34957280009985,None,1,001,2019_Dec_12_0912,TrustGame,3.2.4,60.13424372781901,
000:010,REGULATE,REACT,1,Player 1,Player 2,0,0,0,0,0,0,4,4,5,,,,,,,,,,,,,,,86.33902790001594,None,,,,,,,,,,,,,,,,,,,,,,,,,,,,,,,,,,,,1,001,2019_Dec_12_0912,TrustGame,3.2.4,60.13424372781901,
000:010,REGULATE,REACT,1,Player 1,Player 2,0,0,0,0,0,0,5,5,3,0,0,0,0,,,,,,,,,,,90.24262459995225,None,,,,,,,,,,,,,,,5,,,,,88.34886020002887,None,88.34886020002887,None,88.34886020002887,None,return,1.8781485999934375,88.34886020002887,None,88.34886020002887,None,88.34886020002887,None,92.25870420015417,None,1,001,2019_Dec_12_0912,TrustGame,3.2.4,60.13424372781901,
000:010,REGULATE,REACT,1,Player 1,Player 2,0,0,0,0,0,0,5,5,3,,,,,,,,,,,,,,,97.2484069999773,None,,,,,,,,,,,,,,,,,,,,,,,,,,,,,,,,,,,,1,001,2019_Dec_12_0912,TrustGame,3.2.4,60.13424372781901,
000:010,REGULATE,REACT,0,Player 1,Player 2,1,0,0,0,0,0,6,6,1,,,,,0,0,0,0,,,,,,,103.57038579997607,None,,,101.25594830000773,None,101.25594830000773,None,101.25594830000773,None,101.25594830000773,None,return,2.2990701999515295,101.25594830000773,None,5,101.25594830000773,None,105.58794790017419,None,,,,,,,,,,,,,,,,,1,001,2019_Dec_12_0912,TrustGame,3.2.4,60.13424372781901,
000:010,REGULATE,REACT,0,Player 1,Player 2,1,0,0,0,0,0,6,6,1,,,,,,,,,,,,,,,,,,,,,,,,,,,,,,,,,,,,,,,,,,,,,,,,,,,,1,001,2019_Dec_12_0912,TrustGame,3.2.4,60.13424372781901,
000:010,REGULATE,REACT,0,Player 1,Player 2,1,0,0,0,0,0,7,7,9,,,,,0,0,0,0,,,,,,,114.52931610005908,None,,,112.58292199997231,None,112.58292199997231,None,112.58292199997231,None,112.58292199997231,None,return,1.9161955001764,112.58292199997231,None,5,112.58292199997231,None,116.53115319996141,None,,,,,,,,,,,,,,,,,1,001,2019_Dec_12_0912,TrustGame,3.2.4,60.13424372781901,
000:010,REGULATE,REACT,0,Player 1,Player 2,1,0,0,0,0,0,7,7,9,,,,,,,,,,,,,,,,,,,,,,,,,,,,,,,,,,,,,,,,,,,,,,,,,,,,1,001,2019_Dec_12_0912,TrustGame,3.2.4,60.13424372781901,
000:010,REGULATE,REACT,1,Player 1,Player 2,0,0,0,0,0,0,8,8,7,0,0,0,0,,,,,,,,,,,124.304171100026,None,,,,,,,,,,,,,,,5,,,,,121.54298190004192,None,121.54298190004192,None,121.54298190004192,None,return,2.7322144999634475,121.54298190004192,None,121.54298190004192,None,121.54298190004192,None,126.3207054999657,None,1,001,2019_Dec_12_0912,TrustGame,3.2.4,60.13424372781901,
000:010,REGULATE,REACT,1,Player 1,Player 2,0,0,0,0,0,0,8,8,7,,,,,,,,,,,,,,,131.3100776001811,None,,,,,,,,,,,,,,,,,,,,,,,,,,,,,,,,,,,,1,001,2019_Dec_12_0912,TrustGame,3.2.4,60.13424372781901,
000:010,REGULATE,REACT,1,Player 1,Player 2,0,0,0,0,0,0,9,9,8,0,0,0,0,,,,,,,,,,,136.9648415001575,None,,,,,,,,,,,,,,,5,,,,,133.31908000004478,None,133.31908000004478,None,133.31908000004478,None,return,3.6278692001942545,133.31908000004478,None,133.31908000004478,None,133.31908000004478,None,138.96650400012732,None,1,001,2019_Dec_12_0912,TrustGame,3.2.4,60.13424372781901,
000:010,REGULATE,REACT,1,Player 1,Player 2,0,0,0,0,0,0,9,9,8,,,,,,,,,,,,,,,143.97067270008847,None,,,,,,,,,,,,,,,,,,,,,,,,,,,,,,,,,,,,1,001,2019_Dec_12_0912,TrustGame,3.2.4,60.13424372781901,
000:010,REGULATE,REACT,,,,,0,0,0,0,,,,,,,,,,,,,,,,,,,,,,,,,,,,,,,,,,,,,,,,,,,,,,,,,,,,,,,,1,001,2019_Dec_12_0912,TrustGame,3.2.4,60.13424372781901,
011:020,REACT,REGULATE,1,Player 1,Player 2,0,0,1,1,1,0,0,0,4,0,0,0,0,,,,,,,,,,,183.369906200096,None,147.97818149998784,None,,,,,,,,,,,,,4,,,,,154.9938263001386,None,154.9938263001386,None,154.9938263001386,None,return,28.35306859994307,154.9938263001386,None,154.9938263001386,None,154.9938263001386,None,185.3904365999624,None,1,001,2019_Dec_12_0912,TrustGame,3.2.4,60.13424372781901,
011:020,REACT,REGULATE,1,Player 1,Player 2,0,0,1,1,1,0,0,0,4,,,,,,,,,,,,,,,190.39241220010445,None,,,,,,,,,,,,,,,,,,,,,,,,,,,,,,,,,,,,1,001,2019_Dec_12_0912,TrustGame,3.2.4,60.13424372781901,
011:020,REACT,REGULATE,0,Player 1,Player 2,1,0,1,1,1,0,1,1,7,,,,,0,0,0,0,,,,,,,196.79788099997677,None,,,194.3833354001399,None,194.3833354001399,None,194.3833354001399,None,194.3833354001399,None,return,2.387857000110671,194.3833354001399,None,5,194.3833354001399,None,198.79946060013026,None,,,,,,,,,,,,,,,,,1,001,2019_Dec_12_0912,TrustGame,3.2.4,60.13424372781901,
011:020,REACT,REGULATE,0,Player 1,Player 2,1,0,1,1,1,0,1,1,7,,,,,,,,,,,,,,,,,,,,,,,,,,,,,,,,,,,,,,,,,,,,,,,,,,,,1,001,2019_Dec_12_0912,TrustGame,3.2.4,60.13424372781901,
011:020,REACT,REGULATE,1,Player 1,Player 2,0,0,1,1,1,0,2,2,8,0,0,0,0,,,,,,,,,,,205.85527830012143,None,,,,,,,,,,,,,,,5,,,,,203.81153950002044,None,203.81153950002044,None,203.81153950002044,None,return,2.015416500158608,203.81153950002044,None,203.81153950002044,None,203.81153950002044,None,207.87211710005067,None,1,001,2019_Dec_12_0912,TrustGame,3.2.4,60.13424372781901,
011:020,REACT,REGULATE,1,Player 1,Player 2,0,0,1,1,1,0,2,2,8,,,,,,,,,,,,,,,212.86153340013698,None,,,,,,,,,,,,,,,,,,,,,,,,,,,,,,,,,,,,1,001,2019_Dec_12_0912,TrustGame,3.2.4,60.13424372781901,
011:020,REACT,REGULATE,1,Player 1,Player 2,0,0,1,1,1,0,3,3,1,0,0,0,0,,,,,,,,,,,217.3149143999908,None,,,,,,,,,,,,,,,5,,,,,214.87114090006799,None,214.87114090006799,None,214.87114090006799,None,return,2.411920999875292,214.87114090006799,None,214.87114090006799,None,214.87114090006799,None,219.33128740009852,None,1,001,2019_Dec_12_0912,TrustGame,3.2.4,60.13424372781901,
011:020,REACT,REGULATE,1,Player 1,Player 2,0,0,1,1,1,0,3,3,1,,,,,,,,,,,,,,,224.32069870014675,None,,,,,,,,,,,,,,,,,,,,,,,,,,,,,,,,,,,,1,001,2019_Dec_12_0912,TrustGame,3.2.4,60.13424372781901,
011:020,REACT,REGULATE,1,Player 1,Player 2,0,0,1,1,1,0,4,4,6,0,0,0,0,,,,,,,,,,,228.05680550006218,None,,,,,,,,,,,,,,,5,,,,,226.32962480001152,None,226.32962480001152,None,226.32962480001152,None,return,1.7052857999224216,226.32962480001152,None,226.32962480001152,None,226.32962480001152,None,230.07605589996092,None,1,001,2019_Dec_12_0912,TrustGame,3.2.4,60.13424372781901,
011:020,REACT,REGULATE,1,Player 1,Player 2,0,0,1,1,1,0,4,4,6,,,,,,,,,,,,,,,235.0629096000921,None,,,,,,,,,,,,,,,,,,,,,,,,,,,,,,,,,,,,1,001,2019_Dec_12_0912,TrustGame,3.2.4,60.13424372781901,
011:020,REACT,REGULATE,0,Player 1,Player 2,1,0,1,1,1,0,5,5,5,,,,,0,0,0,0,,,,,,,241.05116669996642,None,,,239.07043480011635,None,239.07043480011635,None,239.07043480011635,None,239.07043480011635,None,return,1.956674400018528,239.07043480011635,None,5,239.07043480011635,None,243.05284780007787,None,,,,,,,,,,,,,,,,,1,001,2019_Dec_12_0912,TrustGame,3.2.4,60.13424372781901,
011:020,REACT,REGULATE,0,Player 1,Player 2,1,0,1,1,1,0,5,5,5,,,,,,,,,,,,,,,,,,,,,,,,,,,,,,,,,,,,,,,,,,,,,,,,,,,,1,001,2019_Dec_12_0912,TrustGame,3.2.4,60.13424372781901,
011:020,REACT,REGULATE,0,Player 1,Player 2,1,0,1,1,1,0,6,6,3,,,,,0,0,0,0,,,,,,,252.52740530017763,None,,,250.06267779995687,None,250.06267779995687,None,250.06267779995687,None,250.06267779995687,None,return,2.4362383000552654,250.06267779995687,None,5,250.06267779995687,None,254.54454530007206,None,,,,,,,,,,,,,,,,,1,001,2019_Dec_12_0912,TrustGame,3.2.4,60.13424372781901,
011:020,REACT,REGULATE,0,Player 1,Player 2,1,0,1,1,1,0,6,6,3,,,,,,,,,,,,,,,,,,,,,,,,,,,,,,,,,,,,,,,,,,,,,,,,,,,,1,001,2019_Dec_12_0912,TrustGame,3.2.4,60.13424372781901,
011:020,REACT,REGULATE,1,Player 1,Player 2,0,0,1,1,1,0,7,7,2,0,0,0,0,,,,,,,,,,,261.2180034001358,None,,,,,,,,,,,,,,,5,,,,,259.54075130005367,None,259.54075130005367,None,259.54075130005367,None,return,1.6463053000625223,259.54075130005367,None,259.54075130005367,None,259.54075130005367,None,263.2196714000311,None,1,001,2019_Dec_12_0912,TrustGame,3.2.4,60.13424372781901,
011:020,REACT,REGULATE,1,Player 1,Player 2,0,0,1,1,1,0,7,7,2,,,,,,,,,,,,,,,268.22374349995516,None,,,,,,,,,,,,,,,,,,,,,,,,,,,,,,,,,,,,1,001,2019_Dec_12_0912,TrustGame,3.2.4,60.13424372781901,
011:020,REACT,REGULATE,0,Player 1,Player 2,1,0,1,1,1,0,8,8,0,,,,,0,0,0,0,,,,,,,274.2287165001035,None,,,272.23087720014155,None,272.23087720014155,None,272.23087720014155,None,272.23087720014155,None,return,1.9800476001109928,272.23087720014155,None,5,272.23087720014155,None,276.2465362001676,None,,,,,,,,,,,,,,,,,1,001,2019_Dec_12_0912,TrustGame,3.2.4,60.13424372781901,
011:020,REACT,REGULATE,0,Player 1,Player 2,1,0,1,1,1,0,8,8,0,,,,,,,,,,,,,,,,,,,,,,,,,,,,,,,,,,,,,,,,,,,,,,,,,,,,1,001,2019_Dec_12_0912,TrustGame,3.2.4,60.13424372781901,
011:020,REACT,REGULATE,,,,,0,1,1,1,,,,,,,,,,,,,,,,,,,,,,,,,,,,,,,,,,,,,,,,,,,,,,,,,,,,,,,,1,001,2019_Dec_12_0912,TrustGame,3.2.4,60.13424372781901,
021:030,REACT,REGULATE,0,Player 1,Player 2,1,0,2,2,2,0,0,0,4,,,,,0,0,0,0,,,,,,,294.32886570016854,None,283.2359468000941,None,292.2495326001663,None,292.2495326001663,None,292.2495326001663,None,292.2495326001663,None,return,2.0577209000475705,292.2495326001663,None,5,292.2495326001663,None,296.3456864999607,None,,,,,,,,,,,,,,,,,1,001,2019_Dec_12_0912,TrustGame,3.2.4,60.13424372781901,
021:030,REACT,REGULATE,0,Player 1,Player 2,1,0,2,2,2,0,0,0,4,,,,,,,,,,,,,,,,,,,,,,,,,,,,,,,,,,,,,,,,,,,,,,,,,,,,1,001,2019_Dec_12_0912,TrustGame,3.2.4,60.13424372781901,
021:030,REACT,REGULATE,0,Player 1,Player 2,1,0,2,2,2,0,1,1,5,,,,,0,0,0,0,,,,,,,310.80907850014046,None,,,303.3443935001269,None,303.3443935001269,None,303.3443935001269,None,303.3443935001269,None,return,7.442885999800637,303.3443935001269,None,4,303.3443935001269,None,312.8255255999975,None,,,,,,,,,,,,,,,,,1,001,2019_Dec_12_0912,TrustGame,3.2.4,60.13424372781901,
021:030,REACT,REGULATE,0,Player 1,Player 2,1,0,2,2,2,0,1,1,5,,,,,,,,,,,,,,,,,,,,,,,,,,,,,,,,,,,,,,,,,,,,,,,,,,,,1,001,2019_Dec_12_0912,TrustGame,3.2.4,60.13424372781901,
021:030,REACT,REGULATE,0,Player 1,Player 2,1,0,2,2,2,0,2,2,3,,,,,0,0,0,0,,,,,,,321.6681046001613,None,,,319.82162600010633,None,319.82162600010633,None,319.82162600010633,None,319.82162600010633,None,return,1.8293503001332283,319.82162600010633,None,5,319.82162600010633,None,323.6844634001609,None,,,,,,,,,,,,,,,,,1,001,2019_Dec_12_0912,TrustGame,3.2.4,60.13424372781901,
021:030,REACT,REGULATE,0,Player 1,Player 2,1,0,2,2,2,0,2,2,3,,,,,,,,,,,,,,,,,,,,,,,,,,,,,,,,,,,,,,,,,,,,,,,,,,,,1,001,2019_Dec_12_0912,TrustGame,3.2.4,60.13424372781901,
021:030,REACT,REGULATE,0,Player 1,Player 2,1,0,2,2,2,0,3,3,1,,,,,0,0,0,0,,,,,,,338.7155436000321,None,,,330.68210240011103,None,330.68210240011103,None,330.68210240011103,None,330.68210240011103,None,return,8.008966999826953,330.68210240011103,None,5,330.68210240011103,None,340.73361890017986,None,,,,,,,,,,,,,,,,,1,001,2019_Dec_12_0912,TrustGame,3.2.4,60.13424372781901,
021:030,REACT,REGULATE,0,Player 1,Player 2,1,0,2,2,2,0,3,3,1,,,,,,,,,,,,,,,,,,,,,,,,,,,,,,,,,,,,,,,,,,,,,,,,,,,,1,001,2019_Dec_12_0912,TrustGame,3.2.4,60.13424372781901,
021:030,REACT,REGULATE,0,Player 1,Player 2,1,0,2,2,2,0,4,4,8,,,,,0,0,0,0,,,,,,,349.5919753999915,None,,,347.7294233001303,None,347.7294233001303,None,347.7294233001303,None,347.7294233001303,None,return,1.8415371999144554,347.7294233001303,None,5,347.7294233001303,None,351.6097929000389,None,,,,,,,,,,,,,,,,,1,001,2019_Dec_12_0912,TrustGame,3.2.4,60.13424372781901,
021:030,REACT,REGULATE,0,Player 1,Player 2,1,0,2,2,2,0,4,4,8,,,,,,,,,,,,,,,,,,,,,,,,,,,,,,,,,,,,,,,,,,,,,,,,,,,,1,001,2019_Dec_12_0912,TrustGame,3.2.4,60.13424372781901,
021:030,REACT,REGULATE,1,Player 1,Player 2,0,0,2,2,2,0,5,5,6,0,0,0,0,,,,,,,,,,,361.5012529999949,None,,,,,,,,,,,,,,,5,,,,,356.60636069998145,None,356.60636069998145,None,356.60636069998145,None,return,4.8686190999578685,356.60636069998145,None,356.60636069998145,None,356.60636069998145,None,363.5183543001767,None,1,001,2019_Dec_12_0912,TrustGame,3.2.4,60.13424372781901,
021:030,REACT,REGULATE,1,Player 1,Player 2,0,0,2,2,2,0,5,5,6,,,,,,,,,,,,,,,368.50666050007567,None,,,,,,,,,,,,,,,,,,,,,,,,,,,,,,,,,,,,1,001,2019_Dec_12_0912,TrustGame,3.2.4,60.13424372781901,
021:030,REACT,REGULATE,1,Player 1,Player 2,0,0,2,2,2,0,6,6,0,0,0,0,0,,,,,,,,,,,372.86071250005625,None,,,,,,,,,,,,,,,5,,,,,370.51630920008756,None,370.51630920008756,None,370.51630920008756,None,return,2.318559200037271,370.51630920008756,None,370.51630920008756,None,370.51630920008756,None,374.8761632000096,None,1,001,2019_Dec_12_0912,TrustGame,3.2.4,60.13424372781901,
021:030,REACT,REGULATE,1,Player 1,Player 2,0,0,2,2,2,0,6,6,0,,,,,,,,,,,,,,,379.86644889996387,None,,,,,,,,,,,,,,,,,,,,,,,,,,,,,,,,,,,,1,001,2019_Dec_12_0912,TrustGame,3.2.4,60.13424372781901,
021:030,REACT,REGULATE,1,Player 1,Player 2,0,0,2,2,2,0,7,7,7,0,0,0,0,,,,,,,,,,,388.1231925000902,None,,,,,,,,,,,,,,,5,,,,,381.876089700032,None,381.876089700032,None,381.876089700032,None,return,6.22294420003891,381.876089700032,None,381.876089700032,None,381.876089700032,None,390.1396344001405,None,1,001,2019_Dec_12_0912,TrustGame,3.2.4,60.13424372781901,
021:030,REACT,REGULATE,1,Player 1,Player 2,0,0,2,2,2,0,7,7,7,,,,,,,,,,,,,,,395.1290224001277,None,,,,,,,,,,,,,,,,,,,,,,,,,,,,,,,,,,,,1,001,2019_Dec_12_0912,TrustGame,3.2.4,60.13424372781901,
021:030,REACT,REGULATE,1,Player 1,Player 2,0,0,2,2,2,0,8,8,2,0,0,0,0,,,,,,,,,,,415.5625934000127,None,,,,,,,,,,,,,,,5,,,,,397.13804980018176,None,397.13804980018176,None,397.13804980018176,None,return,18.400928899878636,397.13804980018176,None,397.13804980018176,None,397.13804980018176,None,417.5788626000285,None,1,001,2019_Dec_12_0912,TrustGame,3.2.4,60.13424372781901,
021:030,REACT,REGULATE,1,Player 1,Player 2,0,0,2,2,2,0,8,8,2,,,,,,,,,,,,,,,422.56849460001104,None,,,,,,,,,,,,,,,,,,,,,,,,,,,,,,,,,,,,1,001,2019_Dec_12_0912,TrustGame,3.2.4,60.13424372781901,
021:030,REACT,REGULATE,,,,,0,2,2,2,,,,,,,,,,,,,,,,,,,,,,,,,,,,,,,,,,,,,,,,,,,,,,,,,,,,,,,,1,001,2019_Dec_12_0912,TrustGame,3.2.4,60.13424372781901,
031:040,REGULATE,REACT,0,Player 1,Player 2,1,0,3,3,3,0,0,0,3,,,,,0,0,0,0,,,,,,,436.66325650014915,None,426.57162440009415,None,435.5850527000148,None,435.5850527000148,None,435.5850527000148,None,435.5850527000148,None,return,1.0582320000976324,435.5850527000148,None,5,435.5850527000148,None,438.6803755001165,None,,,,,,,,,,,,,,,,,1,001,2019_Dec_12_0912,TrustGame,3.2.4,60.13424372781901,
031:040,REGULATE,REACT,0,Player 1,Player 2,1,0,3,3,3,0,0,0,3,,,,,,,,,,,,,,,,,,,,,,,,,,,,,,,,,,,,,,,,,,,,,,,,,,,,1,001,2019_Dec_12_0912,TrustGame,3.2.4,60.13424372781901,
031:040,REGULATE,REACT,0,Player 1,Player 2,1,0,3,3,3,0,1,1,4,,,,,0,0,0,0,,,,,,,447.4892152999528,None,,,445.67549010016955,None,445.67549010016955,None,445.67549010016955,None,445.67549010016955,None,return,1.7835230000782758,445.67549010016955,None,5,445.67549010016955,None,449.5064288000576,None,,,,,,,,,,,,,,,,,1,001,2019_Dec_12_0912,TrustGame,3.2.4,60.13424372781901,
031:040,REGULATE,REACT,0,Player 1,Player 2,1,0,3,3,3,0,1,1,4,,,,,,,,,,,,,,,,,,,,,,,,,,,,,,,,,,,,,,,,,,,,,,,,,,,,1,001,2019_Dec_12_0912,TrustGame,3.2.4,60.13424372781901,
031:040,REGULATE,REACT,0,Player 1,Player 2,1,0,3,3,3,0,2,2,6,,,,,0,0,0,0,,,,,,,458.0312586000655,None,,,456.500820199959,None,456.500820199959,None,456.500820199959,None,456.500820199959,None,return,1.5018678000196815,456.500820199959,None,5,456.500820199959,None,460.0481416999828,None,,,,,,,,,,,,,,,,,1,001,2019_Dec_12_0912,TrustGame,3.2.4,60.13424372781901,
031:040,REGULATE,REACT,0,Player 1,Player 2,1,0,3,3,3,0,2,2,6,,,,,,,,,,,,,,,,,,,,,,,,,,,,,,,,,,,,,,,,,,,,,,,,,,,,1,001,2019_Dec_12_0912,TrustGame,3.2.4,60.13424372781901,
031:040,REGULATE,REACT,1,Player 1,Player 2,0,0,3,3,3,0,3,3,1,0,0,0,0,,,,,,,,,,,466.4215534001123,None,,,,,,,,,,,,,,,5,,,,,465.0446176000405,None,465.0446176000405,None,465.0446176000405,None,return,1.3587350000161678,465.0446176000405,None,465.0446176000405,None,465.0446176000405,None,468.43756200000644,None,1,001,2019_Dec_12_0912,TrustGame,3.2.4,60.13424372781901,
031:040,REGULATE,REACT,1,Player 1,Player 2,0,0,3,3,3,0,3,3,1,,,,,,,,,,,,,,,473.4269934000913,None,,,,,,,,,,,,,,,,,,,,,,,,,,,,,,,,,,,,1,001,2019_Dec_12_0912,TrustGame,3.2.4,60.13424372781901,
031:040,REGULATE,REACT,1,Player 1,Player 2,0,0,3,3,3,0,4,4,0,0,0,0,0,,,,,,,,,,,476.8299444001168,None,,,,,,,,,,,,,,,5,,,,,475.4372710001189,None,475.4372710001189,None,475.4372710001189,None,return,1.3654962999280542,475.4372710001189,None,475.4372710001189,None,475.4372710001189,None,478.831600200152,None,1,001,2019_Dec_12_0912,TrustGame,3.2.4,60.13424372781901,
031:040,REGULATE,REACT,1,Player 1,Player 2,0,0,3,3,3,0,4,4,0,,,,,,,,,,,,,,,483.8360982001759,None,,,,,,,,,,,,,,,,,,,,,,,,,,,,,,,,,,,,1,001,2019_Dec_12_0912,TrustGame,3.2.4,60.13424372781901,
031:040,REGULATE,REACT,1,Player 1,Player 2,0,0,3,3,3,0,5,5,8,0,0,0,0,,,,,,,,,,,487.689388200175,None,,,,,,,,,,,,,,,5,,,,,485.8452143999748,None,485.8452143999748,None,485.8452143999748,None,return,1.8214793000370264,485.8452143999748,None,485.8452143999748,None,485.8452143999748,None,489.7060939001385,None,1,001,2019_Dec_12_0912,TrustGame,3.2.4,60.13424372781901,
031:040,REGULATE,REACT,1,Player 1,Player 2,0,0,3,3,3,0,5,5,8,,,,,,,,,,,,,,,494.69499980006367,None,,,,,,,,,,,,,,,,,,,,,,,,,,,,,,,,,,,,1,001,2019_Dec_12_0912,TrustGame,3.2.4,60.13424372781901,
031:040,REGULATE,REACT,1,Player 1,Player 2,0,0,3,3,3,0,6,6,2,0,0,0,0,,,,,,,,,,,498.09917589998804,None,,,,,,,,,,,,,,,4,,,,,496.7048717001453,None,496.7048717001453,None,496.7048717001453,None,return,1.361755499849096,496.7048717001453,None,496.7048717001453,None,496.7048717001453,None,500.1156923000235,None,1,001,2019_Dec_12_0912,TrustGame,3.2.4,60.13424372781901,
031:040,REGULATE,REACT,1,Player 1,Player 2,0,0,3,3,3,0,6,6,2,,,,,,,,,,,,,,,505.12031950009987,None,,,,,,,,,,,,,,,,,,,,,,,,,,,,,,,,,,,,1,001,2019_Dec_12_0912,TrustGame,3.2.4,60.13424372781901,
031:040,REGULATE,REACT,1,Player 1,Player 2,0,0,3,3,3,0,7,7,5,0,0,0,0,,,,,,,,,,,508.82348310016096,None,,,,,,,,,,,,,,,4,,,,,507.1151159000583,None,507.1151159000583,None,507.1151159000583,None,return,1.6880522000137717,507.1151159000583,None,507.1151159000583,None,507.1151159000583,None,510.84057670016773,None,1,001,2019_Dec_12_0912,TrustGame,3.2.4,60.13424372781901,
031:040,REGULATE,REACT,1,Player 1,Player 2,0,0,3,3,3,0,7,7,5,,,,,,,,,,,,,,,515.8287541000172,None,,,,,,,,,,,,,,,,,,,,,,,,,,,,,,,,,,,,1,001,2019_Dec_12_0912,TrustGame,3.2.4,60.13424372781901,
031:040,REGULATE,REACT,0,Player 1,Player 2,1,0,3,3,3,0,8,8,7,,,,,0,0,0,0,,,,,,,521.1670383000746,None,,,519.8360647000372,None,519.8360647000372,None,519.8360647000372,None,519.8360647000372,None,return,1.3025207999162376,519.8360647000372,None,4,519.8360647000372,None,523.1835551999975,None,,,,,,,,,,,,,,,,,1,001,2019_Dec_12_0912,TrustGame,3.2.4,60.13424372781901,
031:040,REGULATE,REACT,0,Player 1,Player 2,1,0,3,3,3,0,8,8,7,,,,,,,,,,,,,,,,,,,,,,,,,,,,,,,,,,,,,,,,,,,,,,,,,,,,1,001,2019_Dec_12_0912,TrustGame,3.2.4,60.13424372781901,
031:040,REGULATE,REACT,,,,,0,3,3,3,,,,,,,,,,,,,,,,,,,,,,,,,,,,,,,,,,,,,,,,,,,,,,,,,,,,,,,,1,001,2019_Dec_12_0912,TrustGame,3.2.4,60.13424372781901,
041:050,REGULATE,REACT,1,Player 1,Player 2,0,0,4,4,4,0,0,0,4,0,0,0,0,,,,,,,,,,,538.614694399992,None,530.1743831001222,None,,,,,,,,,,,,,4,,,,,537.1956808001269,None,537.1956808001269,None,537.1956808001269,None,return,1.3989870001096278,537.1956808001269,None,537.1956808001269,None,537.1956808001269,None,540.6163855001796,None,1,001,2019_Dec_12_0912,TrustGame,3.2.4,60.13424372781901,
041:050,REGULATE,REACT,1,Player 1,Player 2,0,0,4,4,4,0,0,0,4,,,,,,,,,,,,,,,545.620264200028,None,,,,,,,,,,,,,,,,,,,,,,,,,,,,,,,,,,,,1,001,2019_Dec_12_0912,TrustGame,3.2.4,60.13424372781901,
041:050,REGULATE,REACT,0,Player 1,Player 2,1,0,4,4,4,0,1,1,2,,,,,0,0,0,0,,,,,,,551.6921496000141,None,,,549.6284044999629,None,549.6284044999629,None,549.6284044999629,None,549.6284044999629,None,return,2.038193899905309,549.6284044999629,None,5,549.6284044999629,None,553.7091412001755,None,,,,,,,,,,,,,,,,,1,001,2019_Dec_12_0912,TrustGame,3.2.4,60.13424372781901,
041:050,REGULATE,REACT,0,Player 1,Player 2,1,0,4,4,4,0,1,1,2,,,,,,,,,,,,,,,,,,,,,,,,,,,,,,,,,,,,,,,,,,,,,,,,,,,,1,001,2019_Dec_12_0912,TrustGame,3.2.4,60.13424372781901,
041:050,REGULATE,REACT,1,Player 1,Player 2,0,0,4,4,4,0,2,2,6,0,0,0,0,,,,,,,,,,,562.3676204001531,None,,,,,,,,,,,,,,,4,,,,,558.7055176000576,None,558.7055176000576,None,558.7055176000576,None,return,3.6331623001024127,558.7055176000576,None,558.7055176000576,None,558.7055176000576,None,564.3846615999937,None,1,001,2019_Dec_12_0912,TrustGame,3.2.4,60.13424372781901,
041:050,REGULATE,REACT,1,Player 1,Player 2,0,0,4,4,4,0,2,2,6,,,,,,,,,,,,,,,569.3736019001808,None,,,,,,,,,,,,,,,,,,,,,,,,,,,,,,,,,,,,1,001,2019_Dec_12_0912,TrustGame,3.2.4,60.13424372781901,
041:050,REGULATE,REACT,0,Player 1,Player 2,1,0,4,4,4,0,3,3,0,,,,,0,0,0,0,,,,,,,575.0281277999748,None,,,573.3811308001168,None,573.3811308001168,None,573.3811308001168,None,573.3811308001168,None,return,1.6296197997871786,573.3811308001168,None,3,573.3811308001168,None,577.0446687000804,None,,,,,,,,,,,,,,,,,1,001,2019_Dec_12_0912,TrustGame,3.2.4,60.13424372781901,
041:050,REGULATE,REACT,0,Player 1,Player 2,1,0,4,4,4,0,3,3,0,,,,,,,,,,,,,,,,,,,,,,,,,,,,,,,,,,,,,,,,,,,,,,,,,,,,1,001,2019_Dec_12_0912,TrustGame,3.2.4,60.13424372781901,
041:050,REGULATE,REACT,0,Player 1,Player 2,1,0,4,4,4,0,4,4,3,,,,,0,0,0,0,,,,,,,585.4366743001156,None,,,584.039818600053,None,584.039818600053,None,584.039818600053,None,584.039818600053,None,return,1.3713849000632763,584.039818600053,None,4,584.039818600053,None,587.4540709999856,None,,,,,,,,,,,,,,,,,1,001,2019_Dec_12_0912,TrustGame,3.2.4,60.13424372781901,
041:050,REGULATE,REACT,0,Player 1,Player 2,1,0,4,4,4,0,4,4,3,,,,,,,,,,,,,,,,,,,,,,,,,,,,,,,,,,,,,,,,,,,,,,,,,,,,1,001,2019_Dec_12_0912,TrustGame,3.2.4,60.13424372781901,
041:050,REGULATE,REACT,0,Player 1,Player 2,1,0,4,4,4,0,5,5,5,,,,,0,0,0,0,,,,,,,596.5628211000003,None,,,594.4483668000903,None,594.4483668000903,None,594.4483668000903,None,594.4483668000903,None,return,2.0982890999875963,594.4483668000903,None,4,594.4483668000903,None,598.5798102000263,None,,,,,,,,,,,,,,,,,1,001,2019_Dec_12_0912,TrustGame,3.2.4,60.13424372781901,
041:050,REGULATE,REACT,0,Player 1,Player 2,1,0,4,4,4,0,5,5,5,,,,,,,,,,,,,,,,,,,,,,,,,,,,,,,,,,,,,,,,,,,,,,,,,,,,1,001,2019_Dec_12_0912,TrustGame,3.2.4,60.13424372781901,
041:050,REGULATE,REACT,0,Player 1,Player 2,1,0,4,4,4,0,6,6,8,,,,,0,0,0,0,,,,,,,606.7044899000321,None,,,605.5744637001771,None,605.5744637001771,None,605.5744637001771,None,605.5744637001771,None,return,1.1004789001308382,605.5744637001771,None,4,605.5744637001771,None,608.7212726001162,None,,,,,,,,,,,,,,,,,1,001,2019_Dec_12_0912,TrustGame,3.2.4,60.13424372781901,
041:050,REGULATE,REACT,0,Player 1,Player 2,1,0,4,4,4,0,6,6,8,,,,,,,,,,,,,,,,,,,,,,,,,,,,,,,,,,,,,,,,,,,,,,,,,,,,1,001,2019_Dec_12_0912,TrustGame,3.2.4,60.13424372781901,
041:050,REGULATE,REACT,1,Player 1,Player 2,0,0,4,4,4,0,7,7,7,0,0,0,0,,,,,,,,,,,614.7279744001571,None,,,,,,,,,,,,,,,4,,,,,613.7175040000584,None,613.7175040000584,None,613.7175040000584,None,return,0.9891321000177413,613.7175040000584,None,613.7175040000584,None,613.7175040000584,None,616.7441601001192,None,1,001,2019_Dec_12_0912,TrustGame,3.2.4,60.13424372781901,
041:050,REGULATE,REACT,1,Player 1,Player 2,0,0,4,4,4,0,7,7,7,,,,,,,,,,,,,,,621.7337959001306,None,,,,,,,,,,,,,,,,,,,,,,,,,,,,,,,,,,,,1,001,2019_Dec_12_0912,TrustGame,3.2.4,60.13424372781901,
041:050,REGULATE,REACT,1,Player 1,Player 2,0,0,4,4,4,0,8,8,1,0,0,0,0,,,,,,,,,,,625.5201350999996,None,,,,,,,,,,,,,,,5,,,,,623.7422452999745,None,623.7422452999745,None,623.7422452999745,None,return,1.7483495001215488,623.7422452999745,None,623.7422452999745,None,623.7422452999745,None,627.5360359000042,None,1,001,2019_Dec_12_0912,TrustGame,3.2.4,60.13424372781901,
041:050,REGULATE,REACT,1,Player 1,Player 2,0,0,4,4,4,0,8,8,1,,,,,,,,,,,,,,,632.5260630000848,None,,,,,,,,,,,,,,,,,,,,,,,,,,,,,,,,,,,,1,001,2019_Dec_12_0912,TrustGame,3.2.4,60.13424372781901,
041:050,REGULATE,REACT,,,,,0,4,4,4,,,,,,,,,,,,,,,,,,,,,,,,,,,,,,,,,,,,,,,,,,,,,,,,,,,,,,,,1,001,2019_Dec_12_0912,TrustGame,3.2.4,60.13424372781901,
051:060,REACT,REGULATE,1,Player 1,Player 2,0,0,5,5,5,0,0,0,4,0,0,0,0,,,,,,,,,,,644.7359762999695,None,636.5291337000672,None,,,,,,,,,,,,,4,,,,,643.5504685000051,None,643.5504685000051,None,643.5504685000051,None,return,1.156124599976465,643.5504685000051,None,643.5504685000051,None,643.5504685000051,None,646.7529269000515,None,1,001,2019_Dec_12_0912,TrustGame,3.2.4,60.13424372781901,
051:060,REACT,REGULATE,1,Player 1,Player 2,0,0,5,5,5,0,0,0,4,,,,,,,,,,,,,,,651.7417550000828,None,,,,,,,,,,,,,,,,,,,,,,,,,,,,,,,,,,,,1,001,2019_Dec_12_0912,TrustGame,3.2.4,60.13424372781901,
051:060,REACT,REGULATE,1,Player 1,Player 2,0,0,5,5,5,0,1,1,1,0,0,0,0,,,,,,,,,,,656.0456522000022,None,,,,,,,,,,,,,,,4,,,,,653.7512050000951,None,653.7512050000951,None,653.7512050000951,None,return,2.2675037998706102,653.7512050000951,None,653.7512050000951,None,653.7512050000951,None,658.0472268001176,None,1,001,2019_Dec_12_0912,TrustGame,3.2.4,60.13424372781901,
051:060,REACT,REGULATE,1,Player 1,Player 2,0,0,5,5,5,0,1,1,1,,,,,,,,,,,,,,,663.0512202000245,None,,,,,,,,,,,,,,,,,,,,,,,,,,,,,,,,,,,,1,001,2019_Dec_12_0912,TrustGame,3.2.4,60.13424372781901,
051:060,REACT,REGULATE,0,Player 1,Player 2,1,0,5,5,5,0,2,2,3,,,,,0,0,0,0,,,,,,,668.78951589996,None,,,667.0593942000996,None,667.0593942000996,None,667.0593942000996,None,667.0593942000996,None,return,1.7117461001034826,667.0593942000996,None,4,667.0593942000996,None,670.8068773001432,None,,,,,,,,,,,,,,,,,1,001,2019_Dec_12_0912,TrustGame,3.2.4,60.13424372781901,
051:060,REACT,REGULATE,0,Player 1,Player 2,1,0,5,5,5,0,2,2,3,,,,,,,,,,,,,,,,,,,,,,,,,,,,,,,,,,,,,,,,,,,,,,,,,,,,1,001,2019_Dec_12_0912,TrustGame,3.2.4,60.13424372781901,
051:060,REACT,REGULATE,0,Player 1,Player 2,1,0,5,5,5,0,3,3,2,,,,,0,0,0,0,,,,,,,679.8150295000523,None,,,677.8005835001823,None,677.8005835001823,None,677.8005835001823,None,677.8005835001823,None,return,1.994502300163731,677.8005835001823,None,5,677.8005835001823,None,681.8315596000757,None,,,,,,,,,,,,,,,,,1,001,2019_Dec_12_0912,TrustGame,3.2.4,60.13424372781901,
051:060,REACT,REGULATE,0,Player 1,Player 2,1,0,5,5,5,0,3,3,2,,,,,,,,,,,,,,,,,,,,,,,,,,,,,,,,,,,,,,,,,,,,,,,,,,,,1,001,2019_Dec_12_0912,TrustGame,3.2.4,60.13424372781901,
051:060,REACT,REGULATE,0,Player 1,Player 2,1,0,5,5,5,0,4,4,5,,,,,0,0,0,0,,,,,,,691.3580202001613,None,,,688.8269691001624,None,688.8269691001624,None,688.8269691001624,None,688.8269691001624,None,return,2.5036516000982374,688.8269691001624,None,4,688.8269691001624,None,693.3762759000529,None,,,,,,,,,,,,,,,,,1,001,2019_Dec_12_0912,TrustGame,3.2.4,60.13424372781901,
051:060,REACT,REGULATE,0,Player 1,Player 2,1,0,5,5,5,0,4,4,5,,,,,,,,,,,,,,,,,,,,,,,,,,,,,,,,,,,,,,,,,,,,,,,,,,,,1,001,2019_Dec_12_0912,TrustGame,3.2.4,60.13424372781901,
051:060,REACT,REGULATE,0,Player 1,Player 2,1,0,5,5,5,0,5,5,7,,,,,0,0,0,0,,,,,,,716.8794813000131,None,,,700.3697326001711,None,700.3697326001711,None,700.3697326001711,None,700.3697326001711,None,return,16.480948699871078,700.3697326001711,None,5,700.3697326001711,None,718.8969223999884,None,,,,,,,,,,,,,,,,,1,001,2019_Dec_12_0912,TrustGame,3.2.4,60.13424372781901,
051:060,REACT,REGULATE,0,Player 1,Player 2,1,0,5,5,5,0,5,5,7,,,,,,,,,,,,,,,,,,,,,,,,,,,,,,,,,,,,,,,,,,,,,,,,,,,,1,001,2019_Dec_12_0912,TrustGame,3.2.4,60.13424372781901,
051:060,REACT,REGULATE,1,Player 1,Player 2,0,0,5,5,5,0,6,6,6,0,0,0,0,,,,,,,,,,,731.7750015000347,None,,,,,,,,,,,,,,,4,,,,,723.8932156001683,None,723.8932156001683,None,723.8932156001683,None,return,7.853481400059536,723.8932156001683,None,723.8932156001683,None,723.8932156001683,None,733.7921794999857,None,1,001,2019_Dec_12_0912,TrustGame,3.2.4,60.13424372781901,
051:060,REACT,REGULATE,1,Player 1,Player 2,0,0,5,5,5,0,6,6,6,,,,,,,,,,,,,,,738.7808113000356,None,,,,,,,,,,,,,,,,,,,,,,,,,,,,,,,,,,,,1,001,2019_Dec_12_0912,TrustGame,3.2.4,60.13424372781901,
051:060,REACT,REGULATE,1,Player 1,Player 2,0,0,5,5,5,0,7,7,0,0,0,0,0,,,,,,,,,,,744.185174500104,None,,,,,,,,,,,,,,,4,,,,,740.7905419999734,None,740.7905419999734,None,740.7905419999734,None,return,3.3722675000317395,740.7905419999734,None,740.7905419999734,None,740.7905419999734,None,746.2019007999916,None,1,001,2019_Dec_12_0912,TrustGame,3.2.4,60.13424372781901,
051:060,REACT,REGULATE,1,Player 1,Player 2,0,0,5,5,5,0,7,7,0,,,,,,,,,,,,,,,751.1912187000271,None,,,,,,,,,,,,,,,,,,,,,,,,,,,,,,,,,,,,1,001,2019_Dec_12_0912,TrustGame,3.2.4,60.13424372781901,
051:060,REACT,REGULATE,0,Player 1,Player 2,1,0,5,5,5,0,8,8,8,,,,,0,0,0,0,,,,,,,757.4298952000681,None,,,755.1986990000587,None,755.1986990000587,None,755.1986990000587,None,755.1986990000587,None,return,2.2126130000688136,755.1986990000587,None,4,755.1986990000587,None,759.4469643000048,None,,,,,,,,,,,,,,,,,1,001,2019_Dec_12_0912,TrustGame,3.2.4,60.13424372781901,
051:060,REACT,REGULATE,0,Player 1,Player 2,1,0,5,5,5,0,8,8,8,,,,,,,,,,,,,,,,,,,,,,,,,,,,,,,,,,,,,,,,,,,,,,,,,,,,1,001,2019_Dec_12_0912,TrustGame,3.2.4,60.13424372781901,
051:060,REACT,REGULATE,,,,,0,5,5,5,,,,,,,,,,,,,,,,,,,,,,,,,,,,,,,,,,,,,,,,,,,,,,,,,,,,,,,,1,001,2019_Dec_12_0912,TrustGame,3.2.4,60.13424372781901,
