sure,gamble,gambleProb,Rows,CueType,gambleWinLoss,sureWinLoss,WinLossCode,plus,WinLoss,Evgamble,riskyAdDis,PracticeLoop.thisRepN,PracticeLoop.thisTrialN,PracticeLoop.thisN,PracticeLoop.thisIndex,mainLoop.thisRepN,mainLoop.thisTrialN,mainLoop.thisN,mainLoop.thisIndex,trials.thisRepN,trials.thisTrialN,trials.thisN,trials.thisIndex,Instructions.started,Instructions.stopped,space.keys,space.rt,space.started,space.stopped,instruct2.started,instruct2.stopped,enter.keys,enter.rt,enter.started,enter.stopped,text_4.started,text_4.stopped,key_resp_2.keys,key_resp_2.rt,key_resp_2.started,key_resp_2.stopped,isi2.started,isi2.stopped,text.started,text.stopped,Line.started,Line.stopped,choice.keys,choice.rt,choice.started,choice.stopped,GambleAmt.started,GambleAmt.stopped,SureAmt.started,SureAmt.stopped,GambleProb.started,GambleProb.stopped,SureProb.started,SureProb.stopped,blank.started,blank.stopped,moneyBank.started,moneyBank.stopped,earningsText.started,earningsText.stopped,text_3.started,text_3.stopped,text_2.started,text_2.stopped,key_resp.keys,key_resp.rt,key_resp.started,key_resp.stopped,cue.started,cue.stopped,participant,session,date,expName,psychopyVersion,frameRate,
,,,,,,,,,,,,,,,,,,,,,,,,13.628656499786302,None,space,2.7753437999635935,13.628656499786302,None,,,,,,,,,,,,,,,,,,,,,,,,,,,,,,,,,,,,,,,,,,,,,,,1,001,2020_Feb_06_1011,SlotMachTest,3.2.4,59.96828880666318,
,,,,,,,,,,,,,,,,,,,,,,,,,,,,,,16.42136889998801,None,space,2.510515799978748,16.42136889998801,None,,,,,,,,,,,,,,,,,,,,,,,,,,,,,,,,,,,,,,,,,1,001,2020_Feb_06_1011,SlotMachTest,3.2.4,59.96828880666318,
,,,,,,,,,,,,,,,,,,,,,,,,,,,,,,,,,,,,18.956838799873367,None,return,3.751478899968788,18.956838799873367,None,,,,,,,,,,,,,,,,,,,,,,,,,,,,,,,,,,,1,001,2020_Feb_06_1011,SlotMachTest,3.2.4,59.96828880666318,
4.5,6.75,50.0,000:0010,EMPHASIZE,50%  WIN,100%  WIN,1.0,+,,,,0,0,0,0,,,,,,,,,,,,,,,,,,,,,,,,,,,33.80242439988069,None,24.72848349995911,None,29.791434400016442,None,2,3.68453640001826,29.791434400016442,None,29.791434400016442,None,29.791434400016442,None,29.791434400016442,None,29.791434400016442,None,29.791434400016442,31.3003938999027,29.791434400016442,None,29.791434400016442,None,35.81636259984225,None,,,,,,,,,1,001,2020_Feb_06_1011,SlotMachTest,3.2.4,59.96828880666318,
2.0,4.25,65.0,00010:0020,DE-EMPHASIZE,65%  WIN,100%  WIN,1.0,+,,,,0,1,1,1,,,,,,,,,,,,,,,,,,,,,,,,,,,45.86234140000306,None,,,41.848591999849305,None,None,,41.848591999849305,None,41.848591999849305,None,41.848591999849305,None,41.848591999849305,None,41.848591999849305,None,41.848591999849305,43.36034969985485,41.848591999849305,None,41.848591999849305,None,47.87415469996631,None,,,,,,,,,1,001,2020_Feb_06_1011,SlotMachTest,3.2.4,59.96828880666318,
3.75,7.5,35.0,00020:0030,DE-EMPHASIZE,35%  LOSE,100%  LOSE,0.0,+,,,,0,2,2,2,,,,,,,,,,,,,,,,,,,,,,,,,,,57.905799199827015,None,,,53.898986199870706,None,1,2.0248442001175135,53.898986199870706,None,53.898986199870706,None,53.898986199870706,None,53.898986199870706,None,53.898986199870706,None,53.898986199870706,55.403963999822736,53.898986199870706,None,53.898986199870706,None,59.91025949991308,None,,,,,,,,,1,001,2020_Feb_06_1011,SlotMachTest,3.2.4,59.96828880666318,
,,,,,,,,,,,,,,,,,,,,,,,,,,,,,,,,,,,,,,,,,,,,,,,,,,,,,,,,,,,,,,,,,,,,63.91216909978539,None,space,7.0365708998870105,63.91216909978539,None,,,1,001,2020_Feb_06_1011,SlotMachTest,3.2.4,59.96828880666318,
4,5,65,000:0010,EMPHASIZE,65%  WIN,100%  WIN,1,+,WIN,3.25,dis,,,,,0,0,0,0,0,0,0,4,,,,,,,,,,,,,,,,,,,81.97584199998528,None,,,77.98860959988087,None,2,1.6167569998651743,77.98860959988087,None,77.98860959988087,None,77.98860959988087,None,77.98860959988087,None,77.98860959988087,None,77.98860959988087,79.49004299985245,77.98860959988087,None,77.98860959988087,None,83.98048489983194,None,,,,,,,72.97075179987587,None,1,001,2020_Feb_06_1011,SlotMachTest,3.2.4,59.96828880666318,
4,6,65,000:0010,EMPHASIZE,65%  WIN,100%  WIN,1,+,WIN,~4,EQUAL,,,,,0,0,0,0,0,1,1,2,,,,,,,,,,,,,,,,,,,93.98564499989152,None,,,89.99825459998101,None,1,2.421575899934396,89.99825459998101,None,89.99825459998101,None,89.99825459998101,None,89.99825459998101,None,89.99825459998101,None,89.99825459998101,91.50092349993065,89.99825459998101,None,89.99825459998101,None,95.99023989983834,None,,,,,,,,,1,001,2020_Feb_06_1011,SlotMachTest,3.2.4,59.96828880666318,
3,5,50,000:0010,EMPHASIZE,50%  WIN,100%  WIN,1,+,WIN,3,ad,,,,,0,0,0,0,0,2,2,0,,,,,,,,,,,,,,,,,,,105.97927929996513,None,,,101.99503779993393,None,2,2.3452750998549163,101.99503779993393,None,101.99503779993393,None,101.99503779993393,None,101.99503779993393,None,101.99503779993393,None,101.99503779993393,103.49491429980844,101.99503779993393,None,101.99503779993393,None,107.98315859981813,None,,,,,,,,,1,001,2020_Feb_06_1011,SlotMachTest,3.2.4,59.96828880666318,
7,10,65,000:0010,EMPHASIZE,65%  LOSE,100%  LOSE,0,+,LOSE,6.5,ad,,,,,0,0,0,0,0,3,3,8,,,,,,,,,,,,,,,,,,,117.97214179998264,None,,,114.00598279992118,None,1,2.589739799965173,114.00598279992118,None,114.00598279992118,None,114.00598279992118,None,114.00598279992118,None,114.00598279992118,None,114.00598279992118,115.52026799996383,114.00598279992118,None,114.00598279992118,None,119.97743369988166,None,,,,,,,,,1,001,2020_Feb_06_1011,SlotMachTest,3.2.4,59.96828880666318,
4,10,35,000:0010,EMPHASIZE,35%  WIN,100%  WIN,1,+,WIN,3.5,dis,,,,,0,0,0,0,0,4,4,1,,,,,,,,,,,,,,,,,,,129.98214279999956,None,,,125.99543799995445,None,1,1.9283068000804633,125.99543799995445,None,125.99543799995445,None,125.99543799995445,None,125.99543799995445,None,125.99543799995445,None,125.99543799995445,127.49709229986183,125.99543799995445,None,125.99543799995445,None,131.9863893999718,None,,,,,,,,,1,001,2020_Feb_06_1011,SlotMachTest,3.2.4,59.96828880666318,
6,9,65,000:0010,EMPHASIZE,65%  LOSE,100%  LOSE,0,+,LOSE,~6,EQUAL,,,,,0,0,0,0,0,5,5,6,,,,,,,,,,,,,,,,,,,141.97528449981473,None,,,137.9919108999893,None,1,2.316363199846819,137.9919108999893,None,137.9919108999893,None,137.9919108999893,None,137.9919108999893,None,137.9919108999893,None,137.9919108999893,139.50689419987611,137.9919108999893,None,137.9919108999893,None,143.9808223999571,None,,,,,,,,,1,001,2020_Feb_06_1011,SlotMachTest,3.2.4,59.96828880666318,
2,6,35,000:0010,EMPHASIZE,35%  LOSE,100%  LOSE,0,+,LOSE,~2,EQUAL,,,,,0,0,0,0,0,6,6,7,,,,,,,,,,,,,,,,,,,153.98520579980686,None,,,149.99708639993332,None,1,2.152005200041458,149.99708639993332,None,149.99708639993332,None,149.99708639993332,None,149.99708639993332,None,149.99708639993332,None,149.99708639993332,151.50016599986702,149.99708639993332,None,149.99708639993332,None,155.98977219988592,None,,,,,,,,,1,001,2020_Feb_06_1011,SlotMachTest,3.2.4,59.96828880666318,
4,7,50,000:0010,EMPHASIZE,50%  LOSE,100%  LOSE,0,+,LOSE,-3.5,ad,,,,,0,0,0,0,0,7,7,9,,,,,,,,,,,,,,,,,,,165.97916739992797,None,,,161.99166729999706,None,1,2.300655299797654,161.99166729999706,None,161.99166729999706,None,161.99166729999706,None,161.99166729999706,None,161.99166729999706,None,161.99166729999706,163.49335699994117,161.99166729999706,None,161.99166729999706,None,167.98403409984894,None,,,,,,,,,1,001,2020_Feb_06_1011,SlotMachTest,3.2.4,59.96828880666318,
3,10,35,000:0010,EMPHASIZE,35%  WIN,100%  WIN,1,+,WIN,3.5,ad,,,,,0,0,0,0,0,8,8,3,,,,,,,,,,,,,,,,,,,177.9718921999447,None,,,174.00264539988711,None,1,2.561219099909067,174.00264539988711,None,174.00264539988711,None,174.00264539988711,None,174.00264539988711,None,174.00264539988711,None,174.00264539988711,175.50336019997485,174.00264539988711,None,174.00264539988711,None,179.97653979994357,None,,,,,,,,,1,001,2020_Feb_06_1011,SlotMachTest,3.2.4,59.96828880666318,
2,7,50,000:0010,EMPHASIZE,50%  LOSE,100%  LOSE,0,+,LOSE,3.5,dis,,,,,0,0,0,0,0,9,9,5,,,,,,,,,,,,,,,,,,,189.98184969997965,None,,,185.99643870000727,None,1,2.9999907000456005,185.99643870000727,None,185.99643870000727,None,185.99643870000727,None,185.99643870000727,None,185.99643870000727,None,185.99643870000727,187.49671490001492,185.99643870000727,None,185.99643870000727,None,191.98641339992173,None,,,,,,,,,1,001,2020_Feb_06_1011,SlotMachTest,3.2.4,59.96828880666318,
4.5,6.75,50.0,000:0010,EMPHASIZE,50%  WIN,100%  WIN,1.0,+,,,,,,,,0,0,0,0,,,,,,,,,,,,,,,,,,,,,,,,,,,,,,,,,,,,,,,,,,,,,,,,,,,,,,,,,1,001,2020_Feb_06_1011,SlotMachTest,3.2.4,59.96828880666318,
4,6,65,00010:0020,DE-EMPHASIZE,65%  WIN,100%  WIN,1,+,WIN,~4,EQUAL,,,,,0,1,1,1,0,0,0,8,,,,,,,,,,,,,,,,,,,206.97962050000206,None,,,202.99367209989578,None,1,2.770087700104341,202.99367209989578,None,202.99367209989578,None,202.99367209989578,None,202.99367209989578,None,202.99367209989578,None,202.99367209989578,204.49387549981475,202.99367209989578,None,202.99367209989578,None,208.98339869990014,None,,,,,,,197.97656939993612,None,1,001,2020_Feb_06_1011,SlotMachTest,3.2.4,59.96828880666318,
6,12,50,00010:0020,DE-EMPHASIZE,50%  WIN,100%  WIN,1,+,WIN,6,EQUAL,,,,,0,1,1,1,0,1,1,4,,,,,,,,,,,,,,,,,,,218.97291479981504,None,,,215.0024478000123,None,2,1.8502722999546677,215.0024478000123,None,215.0024478000123,None,215.0024478000123,None,215.0024478000123,None,215.0024478000123,None,215.0024478000123,216.50394729990512,215.0024478000123,None,215.0024478000123,None,220.97753509995528,None,,,,,,,,,1,001,2020_Feb_06_1011,SlotMachTest,3.2.4,59.96828880666318,
3,6,50,00010:0020,DE-EMPHASIZE,50%  LOSE,100%  LOSE,0,+,LOSE,3,EQUAL,,,,,0,1,1,1,0,2,2,5,,,,,,,,,,,,,,,,,,,230.98252779990435,None,,,226.99802659987472,None,1,2.3817445000167936,226.99802659987472,None,226.99802659987472,None,226.99802659987472,None,226.99802659987472,None,226.99802659987472,None,226.99802659987472,228.49779469985515,226.99802659987472,None,226.99802659987472,None,232.98726009996608,None,,,,,,,,,1,001,2020_Feb_06_1011,SlotMachTest,3.2.4,59.96828880666318,
2,5,65,00010:0020,DE-EMPHASIZE,65%  LOSE,100%  LOSE,0,+,LOSE,-3.25,dis,,,,,0,1,1,1,0,3,3,7,,,,,,,,,,,,,,,,,,,242.9761661000084,None,,,238.98846869985573,None,1,2.4233260001055896,238.98846869985573,None,238.98846869985573,None,238.98846869985573,None,238.98846869985573,None,238.98846869985573,None,238.98846869985573,240.49049359979108,238.98846869985573,None,238.98846869985573,None,244.98020089999773,None,,,,,,,,,1,001,2020_Feb_06_1011,SlotMachTest,3.2.4,59.96828880666318,
5,11,50,00010:0020,DE-EMPHASIZE,50%  LOSE,100%  LOSE,0,+,LOSE,5.5,dis,,,,,0,1,1,1,0,4,4,0,,,,,,,,,,,,,,,,,,,254.98598039988428,None,,,250.99909379985183,None,None,,250.99909379985183,None,250.99909379985183,None,250.99909379985183,None,250.99909379985183,None,250.99909379985183,None,250.99909379985183,252.5003903999459,250.99909379985183,None,250.99909379985183,None,256.99317689985037,None,,,,,,,,,1,001,2020_Feb_06_1011,SlotMachTest,3.2.4,59.96828880666318,
3,7,35,00010:0020,DE-EMPHASIZE,35%  LOSE,100%  LOSE,0,+,LOSE,2.45,ad,,,,,0,1,1,1,0,5,5,6,,,,,,,,,,,,,,,,,,,266.97943629999645,None,,,262.99015429988503,None,1,2.4697799999266863,262.99015429988503,None,262.99015429988503,None,262.99015429988503,None,262.99015429988503,None,262.99015429988503,None,262.99015429988503,264.49368119984865,262.99015429988503,None,262.99015429988503,None,268.9839612999931,None,,,,,,,,,1,001,2020_Feb_06_1011,SlotMachTest,3.2.4,59.96828880666318,
2,8,35,00010:0020,DE-EMPHASIZE,35%  WIN,100%  WIN,1,+,WIN,~3,EQUAL,,,,,0,1,1,1,0,6,6,3,,,,,,,,,,,,,,,,,,,278.9724353000056,None,,,275.00517849996686,None,1,2.822575200116262,275.00517849996686,None,275.00517849996686,None,275.00517849996686,None,275.00517849996686,None,275.00517849996686,None,275.00517849996686,276.5202858999837,275.00517849996686,None,275.00517849996686,None,280.97678429982625,None,,,,,,,,,1,001,2020_Feb_06_1011,SlotMachTest,3.2.4,59.96828880666318,
6,10,65,00010:0020,DE-EMPHASIZE,65%  WIN,100%  WIN,1,+,WIN,6.5,ad,,,,,0,1,1,1,0,7,7,1,,,,,,,,,,,,,,,,,,,290.98226909991354,None,,,286.99435990001075,None,1,3.393355500185862,286.99435990001075,None,286.99435990001075,None,286.99435990001075,None,286.99435990001075,None,286.99435990001075,None,286.99435990001075,288.4972664997913,286.99435990001075,None,286.99435990001075,None,292.9868136998266,None,,,,,,,,,1,001,2020_Feb_06_1011,SlotMachTest,3.2.4,59.96828880666318,
2,7,35,00010:0020,DE-EMPHASIZE,35%  LOSE,100%  LOSE,0,+,LOSE,2.45,dis,,,,,0,1,1,1,0,8,8,9,,,,,,,,,,,,,,,,,,,302.97554089990444,None,,,298.9888278997969,None,1,3.526861400110647,298.9888278997969,None,298.9888278997969,None,298.9888278997969,None,298.9888278997969,None,298.9888278997969,None,298.9888278997969,300.49006400001235,298.9888278997969,None,298.9888278997969,None,304.9799558999948,None,,,,,,,,,1,001,2020_Feb_06_1011,SlotMachTest,3.2.4,59.96828880666318,
3,8,50,00010:0020,DE-EMPHASIZE,35%  LOSE,100%  LOSE,0,+,LOSE,4,dis,,,,,0,1,1,1,0,9,9,2,,,,,,,,,,,,,,,,,,,314.9874563999474,None,,,310.99847619980574,None,1,2.68531410000287,310.99847619980574,None,310.99847619980574,None,310.99847619980574,None,310.99847619980574,None,310.99847619980574,None,310.99847619980574,312.5002084998414,310.99847619980574,None,310.99847619980574,None,316.9902768000029,None,,,,,,,,,1,001,2020_Feb_06_1011,SlotMachTest,3.2.4,59.96828880666318,
2.0,4.25,65.0,00010:0020,DE-EMPHASIZE,65%  WIN,100%  WIN,1.0,+,,,,,,,,0,1,1,1,,,,,,,,,,,,,,,,,,,,,,,,,,,,,,,,,,,,,,,,,,,,,,,,,,,,,,,,,1,001,2020_Feb_06_1011,SlotMachTest,3.2.4,59.96828880666318,
7,9,65,00020:0030,DE-EMPHASIZE,65%  WIN,100%  WIN,1,+,WIN,5.85,dis,,,,,0,2,2,2,0,0,0,4,,,,,,,,,,,,,,,,,,,331.98323459993117,None,,,328.03156939987093,None,1,2.084084999980405,328.03156939987093,None,328.03156939987093,None,328.03156939987093,None,328.03156939987093,None,328.03156939987093,None,328.03156939987093,329.53100720001385,328.03156939987093,None,328.03156939987093,None,333.98751479992643,None,,,,,,,322.9755815998651,None,1,001,2020_Feb_06_1011,SlotMachTest,3.2.4,59.96828880666318,
4,7,65,00020:0030,DE-EMPHASIZE,65%  LOSE,100%  LOSE,0,+,LOSE,4.55,dis,,,,,0,2,2,2,0,1,1,6,,,,,,,,,,,,,,,,,,,343.97656099987216,None,,,339.9917126998771,None,1,2.4439640000928193,339.9917126998771,None,339.9917126998771,None,339.9917126998771,None,339.9917126998771,None,339.9917126998771,None,339.9917126998771,341.49089269991964,339.9917126998771,None,339.9917126998771,None,345.9808575999923,None,,,,,,,,,1,001,2020_Feb_06_1011,SlotMachTest,3.2.4,59.96828880666318,
7,14,50,00020:0030,DE-EMPHASIZE,50%  WIN,100%  WIN,1,+,WIN,7,EQUAL,,,,,0,2,2,2,0,2,2,1,,,,,,,,,,,,,,,,,,,355.98632329981774,None,,,351.9998112998437,None,1,2.0838983000721782,351.9998112998437,None,351.9998112998437,None,351.9998112998437,None,351.9998112998437,None,351.9998112998437,None,351.9998112998437,353.5009274999611,351.9998112998437,None,351.9998112998437,None,357.97420319984667,None,,,,,,,,,1,001,2020_Feb_06_1011,SlotMachTest,3.2.4,59.96828880666318,
3,9,35,00020:0030,DE-EMPHASIZE,35%  LOSE,100%  LOSE,0,+,LOSE,~3,EQUAL,,,,,0,2,2,2,0,3,3,8,,,,,,,,,,,,,,,,,,,367.9794547997881,None,,,363.9939179997891,None,None,,363.9939179997891,None,363.9939179997891,None,363.9939179997891,None,363.9939179997891,None,363.9939179997891,None,363.9939179997891,365.4943677999545,363.9939179997891,None,363.9939179997891,None,369.9851898998022,None,,,,,,,,,1,001,2020_Feb_06_1011,SlotMachTest,3.2.4,59.96828880666318,
2,6,50,00020:0030,DE-EMPHASIZE,50%  LOSE,100%  LOSE,0,+,LOSE,3,dis,,,,,0,2,2,2,0,4,4,9,,,,,,,,,,,,,,,,,,,379.9730268998537,None,,,375.9990338999778,None,1,1.588937500026077,375.9990338999778,None,375.9990338999778,None,375.9990338999778,None,375.9990338999778,None,375.9990338999778,None,375.9990338999778,377.5042606999632,375.9990338999778,None,375.9990338999778,None,381.9774754999671,None,,,,,,,,,1,001,2020_Feb_06_1011,SlotMachTest,3.2.4,59.96828880666318,
3,6,35,00020:0030,DE-EMPHASIZE,35%  WIN,100%  WIN,1,+,WIN,2.1,dis,,,,,0,2,2,2,0,5,5,0,,,,,,,,,,,,,,,,,,,391.98302839999087,None,,,387.9946083999239,None,1,2.4091801000759006,387.9946083999239,None,387.9946083999239,None,387.9946083999239,None,387.9946083999239,None,387.9946083999239,None,387.9946083999239,389.4981348000001,387.9946083999239,None,387.9946083999239,None,393.9885517999064,None,,,,,,,,,1,001,2020_Feb_06_1011,SlotMachTest,3.2.4,59.96828880666318,
2,5,50,00020:0030,DE-EMPHASIZE,35%  WIN,100%  WIN,1,+,WIN,2.5,AD,,,,,0,2,2,2,0,6,6,2,,,,,,,,,,,,,,,,,,,403.9762783998158,None,,,399.9910189998336,None,1,2.8447389998473227,399.9910189998336,None,399.9910189998336,None,399.9910189998336,None,399.9910189998336,None,399.9910189998336,None,399.9910189998336,401.4908673998434,399.9910189998336,None,399.9910189998336,None,405.97906729998067,None,,,,,,,,,1,001,2020_Feb_06_1011,SlotMachTest,3.2.4,59.96828880666318,
3,4,65,00020:0030,DE-EMPHASIZE,65%  LOSE,100%  LOSE,0,+,LOSE,2.6,ad,,,,,0,2,2,2,0,7,7,5,,,,,,,,,,,,,,,,,,,415.9861259998288,None,,,411.9994537997991,None,1,2.5337077998556197,411.9994537997991,None,411.9994537997991,None,411.9994537997991,None,411.9994537997991,None,411.9994537997991,None,411.9994537997991,413.5005588999484,411.9994537997991,None,411.9994537997991,None,417.9736905999016,None,,,,,,,,,1,001,2020_Feb_06_1011,SlotMachTest,3.2.4,59.96828880666318,
4,13,35,00020:0030,DE-EMPHASIZE,35%  LOSE,100%  LOSE,0,+,LOSE,4.55,DIS,,,,,0,2,2,2,0,8,8,7,,,,,,,,,,,,,,,,,,,427.9794842998963,None,,,423.99429879989475,None,1,2.249460600083694,423.99429879989475,None,423.99429879989475,None,423.99429879989475,None,423.99429879989475,None,423.99429879989475,None,423.99429879989475,425.4942237997893,423.99429879989475,None,423.99429879989475,None,429.9847901999019,None,,,,,,,,,1,001,2020_Feb_06_1011,SlotMachTest,3.2.4,59.96828880666318,
2,7,35,00020:0030,DE-EMPHASIZE,35%  WIN,100%  WIN,1,+,WIN,2.45,ad,,,,,0,2,2,2,0,9,9,3,,,,,,,,,,,,,,,,,,,439.97294479981065,None,,,436.0035522999242,None,1,2.8962785999756306,436.0035522999242,None,436.0035522999242,None,436.0035522999242,None,436.0035522999242,None,436.0035522999242,None,436.0035522999242,437.50389990000986,436.0035522999242,None,436.0035522999242,None,441.9772012999747,None,,,,,,,,,1,001,2020_Feb_06_1011,SlotMachTest,3.2.4,59.96828880666318,
3.75,7.5,35.0,00020:0030,DE-EMPHASIZE,35%  LOSE,100%  LOSE,0.0,+,,,,,,,,0,2,2,2,,,,,,,,,,,,,,,,,,,,,,,,,,,,,,,,,,,,,,,,,,,,,,,,,,,,,,,,,1,001,2020_Feb_06_1011,SlotMachTest,3.2.4,59.96828880666318,
3,11,35,0030:0040,EMPHASIZE,35%  LOSE,100%  LOSE,0,None,LOSE,3.85,DIS,,,,,0,3,3,3,0,0,0,5,,,,,,,,,,,,,,,,,,,456.9875231999904,None,,,453.0009251998272,None,2,2.8908261999022216,453.0009251998272,None,453.0009251998272,None,453.0009251998272,None,453.0009251998272,None,453.0009251998272,None,453.0009251998272,454.5013579998631,453.0009251998272,None,453.0009251998272,None,458.9754309998825,None,,,,,,,447.97944919997826,None,1,001,2020_Feb_06_1011,SlotMachTest,3.2.4,59.96828880666318,
5,10,50,0030:0040,EMPHASIZE,50%  LOSE,100%  LOSE,0,None,LOSE,5,EQUAL,,,,,0,3,3,3,0,1,1,3,,,,,,,,,,,,,,,,,,,468.9799477998167,None,,,464.9945158998016,None,1,2.3850056999363005,464.9945158998016,None,464.9945158998016,None,464.9945158998016,None,464.9945158998016,None,464.9945158998016,None,464.9945158998016,466.495138600003,464.9945158998016,None,464.9945158998016,None,470.9840383999981,None,,,,,,,,,1,001,2020_Feb_06_1011,SlotMachTest,3.2.4,59.96828880666318,
2,7,35,0030:0040,EMPHASIZE,35%  WIN,100%  WIN,1,None,WIN,2.45,AD,,,,,0,3,3,3,0,2,2,7,,,,,,,,,,,,,,,,,,,480.97336840000935,None,,,477.00402529980056,None,1,2.4874348000157624,477.00402529980056,None,477.00402529980056,None,477.00402529980056,None,477.00402529980056,None,477.00402529980056,None,477.00402529980056,478.5046604999807,477.00402529980056,None,477.00402529980056,None,482.97805909998715,None,,,,,,,,,1,001,2020_Feb_06_1011,SlotMachTest,3.2.4,59.96828880666318,
4,8,35,0030:0040,EMPHASIZE,35%  WIN,100%  WIN,1,None,WIN,4,equal,,,,,0,3,3,3,0,3,3,0,,,,,,,,,,,,,,,,,,,492.9835915998556,None,,,488.9966292998288,None,1,1.9030307000502944,488.9966292998288,None,488.9966292998288,None,488.9966292998288,None,488.9966292998288,None,488.9966292998288,None,488.9966292998288,490.49838829995133,488.9966292998288,None,488.9966292998288,None,494.9878876998555,None,,,,,,,,,1,001,2020_Feb_06_1011,SlotMachTest,3.2.4,59.96828880666318,
2,4,50,0030:0040,EMPHASIZE,50%  WIN,100%  WIN,1,None,WIN,2,EQUAL,,,,,0,3,3,3,0,4,4,6,,,,,,,,,,,,,,,,,,,504.9770743998233,None,,,500.98931209999137,None,1,2.102472599828616,500.98931209999137,None,500.98931209999137,None,500.98931209999137,None,500.98931209999137,None,500.98931209999137,None,500.98931209999137,502.4913113999646,500.98931209999137,None,500.98931209999137,None,506.9813286999706,None,,,,,,,,,1,001,2020_Feb_06_1011,SlotMachTest,3.2.4,59.96828880666318,
5,8,65,0030:0040,EMPHASIZE,65%  WIN,100%  WIN,1,None,WIN,~5,EQUAL,,,,,0,3,3,3,0,5,5,8,,,,,,,,,,,,,,,,,,,516.9871872998774,None,,,513.0006065999623,None,1,1.9789479000028223,513.0006065999623,None,513.0006065999623,None,513.0006065999623,None,513.0006065999623,None,513.0006065999623,None,513.0006065999623,514.5010813998524,513.0006065999623,None,513.0006065999623,None,518.973999099806,None,,,,,,,,,1,001,2020_Feb_06_1011,SlotMachTest,3.2.4,59.96828880666318,
4,7,50,0030:0040,EMPHASIZE,50%  LOSE,100%  LOSE,0,None,LOSE,-3.5,ad,,,,,0,3,3,3,0,6,6,1,,,,,,,,,,,,,,,,,,,528.9796642998699,None,,,524.9930757000111,None,None,,524.9930757000111,None,524.9930757000111,None,524.9930757000111,None,524.9930757000111,None,524.9930757000111,None,524.9930757000111,526.4948247999419,524.9930757000111,None,524.9930757000111,None,530.9852567999624,None,,,,,,,,,1,001,2020_Feb_06_1011,SlotMachTest,3.2.4,59.96828880666318,
5,6,50,0030:0040,EMPHASIZE,50%  WIN,100%  WIN,1,None,WIN,3,dis,,,,,0,3,3,3,0,7,7,2,,,,,,,,,,,,,,,,,,,540.973167499993,None,,,537.0005112998188,None,1,2.219508499838412,537.0005112998188,None,537.0005112998188,None,537.0005112998188,None,537.0005112998188,None,537.0005112998188,None,537.0005112998188,538.5043538999744,537.0005112998188,None,537.0005112998188,None,542.9775409998838,None,,,,,,,,,1,001,2020_Feb_06_1011,SlotMachTest,3.2.4,59.96828880666318,
2,3,65,0030:0040,EMPHASIZE,65%  LOSE,100%  LOSE,0,None,LOSE,~2,EQUAL,,,,,0,3,3,3,0,8,8,9,,,,,,,,,,,,,,,,,,,552.9831282999367,None,,,548.9962169998325,None,None,,548.9962169998325,None,548.9962169998325,None,548.9962169998325,None,548.9962169998325,None,548.9962169998325,None,548.9962169998325,550.4982639998198,548.9962169998325,None,548.9962169998325,None,554.9891441999935,None,,,,,,,,,1,001,2020_Feb_06_1011,SlotMachTest,3.2.4,59.96828880666318,
8,9,65,0030:0040,EMPHASIZE,65%  LOSE,100%  LOSE,0,None,LOSE,5.85,ad,,,,,0,3,3,3,0,9,9,4,,,,,,,,,,,,,,,,,,,564.9770693997853,None,,,560.9875991998706,None,1,2.264012699946761,560.9875991998706,None,560.9875991998706,None,560.9875991998706,None,560.9875991998706,None,560.9875991998706,None,560.9875991998706,562.4909462998621,560.9875991998706,None,560.9875991998706,None,566.9821067999583,None,,,,,,,,,1,001,2020_Feb_06_1011,SlotMachTest,3.2.4,59.96828880666318,
None,None,None,0030:0040,EMPHASIZE,None,None,None,None,,,,,,,,0,3,3,3,,,,,,,,,,,,,,,,,,,,,,,,,,,,,,,,,,,,,,,,,,,,,,,,,,,,,,,,,1,001,2020_Feb_06_1011,SlotMachTest,3.2.4,59.96828880666318,
9,13,65,0040:0050,DE-EMPHASIZE,65%  LOSE,100%  LOSE,0,None,LOSE,8.45,ad,,,,,0,4,4,4,0,0,0,0,,,,,,,,,,,,,,,,,,,581.9741233999375,None,,,578.0055936998688,None,1,3.4860668999608606,578.0055936998688,None,578.0055936998688,None,578.0055936998688,None,578.0055936998688,None,578.0055936998688,None,578.0055936998688,579.5053283998277,578.0055936998688,None,578.0055936998688,None,583.9779901998118,None,,,,,,,572.9855217998847,None,1,001,2020_Feb_06_1011,SlotMachTest,3.2.4,59.96828880666318,
5,7,65,0040:0050,DE-EMPHASIZE,65%  WIN,100%  WIN,1,None,WIN,4.55,dis,,,,,0,4,4,4,0,1,1,7,,,,,,,,,,,,,,,,,,,593.9838542998768,None,,,589.9972772998735,None,2,2.118593899998814,589.9972772998735,None,589.9972772998735,None,589.9972772998735,None,589.9972772998735,None,589.9972772998735,None,589.9972772998735,591.4987417999655,589.9972772998735,None,589.9972772998735,None,595.9881682000123,None,,,,,,,,,1,001,2020_Feb_06_1011,SlotMachTest,3.2.4,59.96828880666318,
3,6,50,0040:0050,DE-EMPHASIZE,50%  LOSE,100%  LOSE,0,None,LOSE,3,equal,,,,,0,4,4,4,0,2,2,4,,,,,,,,,,,,,,,,,,,605.9773217998445,None,,,601.9894138998352,None,None,,601.9894138998352,None,601.9894138998352,None,601.9894138998352,None,601.9894138998352,None,601.9894138998352,None,601.9894138998352,603.4915438999888,601.9894138998352,None,601.9894138998352,None,607.9820968999993,None,,,,,,,,,1,001,2020_Feb_06_1011,SlotMachTest,3.2.4,59.96828880666318,
2,10,35,0040:0050,DE-EMPHASIZE,35%  LOSE,100%  LOSE,0,None,LOSE,3.5,DIS,,,,,0,4,4,4,0,3,3,5,,,,,,,,,,,,,,,,,,,617.9873357999604,None,,,613.9987086998299,None,None,,613.9987086998299,None,613.9987086998299,None,613.9987086998299,None,613.9987086998299,None,613.9987086998299,None,613.9987086998299,615.5016518000048,613.9987086998299,None,613.9987086998299,None,619.9759970998857,None,,,,,,,,,1,001,2020_Feb_06_1011,SlotMachTest,3.2.4,59.96828880666318,
4,6,65,0040:0050,DE-EMPHASIZE,65%  LOSE,100%  LOSE,0,None,LOSE,~4,EQUAL,,,,,0,4,4,4,0,4,4,9,,,,,,,,,,,,,,,,,,,629.980333799962,None,,,625.9899581999052,None,None,,625.9899581999052,None,625.9899581999052,None,625.9899581999052,None,625.9899581999052,None,625.9899581999052,None,625.9899581999052,627.4949332999531,625.9899581999052,None,625.9899581999052,None,631.9857995999046,None,,,,,,,,,1,001,2020_Feb_06_1011,SlotMachTest,3.2.4,59.96828880666318,
2,5,35,0040:0050,DE-EMPHASIZE,35%  LOSE,100%  LOSE,0,None,LOSE,-1.75,ad,,,,,0,4,4,4,0,5,5,6,,,,,,,,,,,,,,,,,,,641.9737346998882,None,,,638.0005632999819,None,1,1.8270651998464018,638.0005632999819,None,638.0005632999819,None,638.0005632999819,None,638.0005632999819,None,638.0005632999819,None,638.0005632999819,639.504911699798,638.0005632999819,None,638.0005632999819,None,643.9778129998595,None,,,,,,,,,1,001,2020_Feb_06_1011,SlotMachTest,3.2.4,59.96828880666318,
4,9,50,0040:0050,DE-EMPHASIZE,50%  WIN,100%  WIN,1,None,WIN,4.5,ad,,,,,0,4,4,4,0,6,6,1,,,,,,,,,,,,,,,,,,,653.9838378999848,None,,,649.996808799915,None,2,1.8146709001157433,649.996808799915,None,649.996808799915,None,649.996808799915,None,649.996808799915,None,649.996808799915,None,649.996808799915,651.4986539999954,649.996808799915,None,649.996808799915,None,655.9886468998156,None,,,,,,,,,1,001,2020_Feb_06_1011,SlotMachTest,3.2.4,59.96828880666318,
6,8,50,0040:0050,DE-EMPHASIZE,50%  WIN,100%  WIN,1,None,WIN,4,DIS,,,,,0,4,4,4,0,7,7,8,,,,,,,,,,,,,,,,,,,665.9770338998642,None,,,661.989212699933,None,1,3.070545200025663,661.989212699933,None,661.989212699933,None,661.989212699933,None,661.989212699933,None,661.989212699933,None,661.989212699933,663.491248899838,661.989212699933,None,661.989212699933,None,667.9815664999187,None,,,,,,,,,1,001,2020_Feb_06_1011,SlotMachTest,3.2.4,59.96828880666318,
3,9,35,0040:0050,DE-EMPHASIZE,35%  WIN,100%  WIN,1,None,WIN,~3,EQUAL,,,,,0,4,4,4,0,8,8,2,,,,,,,,,,,,,,,,,,,677.9870743998326,None,,,674.0002932997886,None,None,,674.0002932997886,None,674.0002932997886,None,674.0002932997886,None,674.0002932997886,None,674.0002932997886,None,674.0002932997886,675.5013194999192,674.0002932997886,None,674.0002932997886,None,679.9757324999664,None,,,,,,,,,1,001,2020_Feb_06_1011,SlotMachTest,3.2.4,59.96828880666318,
4,7,65,0040:0050,DE-EMPHASIZE,65%  WIN,100%  WIN,1,None,WIN,4.55,ad,,,,,0,4,4,4,0,9,9,3,,,,,,,,,,,,,,,,,,,689.9801147999242,None,,,685.9922573999502,None,1,2.427414600038901,685.9922573999502,None,685.9922573999502,None,685.9922573999502,None,685.9922573999502,None,685.9922573999502,None,685.9922573999502,687.4948535999283,685.9922573999502,None,685.9922573999502,None,691.9848331999965,None,,,,,,,,,1,001,2020_Feb_06_1011,SlotMachTest,3.2.4,59.96828880666318,
None,None,None,0040:0050,DE-EMPHASIZE,None,None,None,None,,,,,,,,0,4,4,4,,,,,,,,,,,,,,,,,,,,,,,,,,,,,,,,,,,,,,,,,,,,,,,,,,,,,,,,,1,001,2020_Feb_06_1011,SlotMachTest,3.2.4,59.96828880666318,
2,4,65,0050:0060,EMPHASIZE,65%  WIN,100%  WIN,1,None,WIN,2.6,DIS,,,,,0,5,5,5,0,0,0,2,,,,,,,,,,,,,,,,,,,706.9779617998283,None,,,702.9913270999677,None,1,2.035997200058773,702.9913270999677,None,702.9913270999677,None,702.9913270999677,None,702.9913270999677,None,702.9913270999677,None,702.9913270999677,704.4922548998147,702.9913270999677,None,702.9913270999677,None,708.9819775999058,None,,,,,,,697.9869578999933,None,1,001,2020_Feb_06_1011,SlotMachTest,3.2.4,59.96828880666318,
2,8,35,0050:0060,EMPHASIZE,35%  WIN,100%  WIN,1,None,WIN,2.8,AD,,,,,0,5,5,5,0,1,1,9,,,,,,,,,,,,,,,,,,,718.9878213999327,None,,,715.006018999964,None,1,2.6136284000240266,715.006018999964,None,715.006018999964,None,715.006018999964,None,715.006018999964,None,715.006018999964,None,715.006018999964,716.5190010999795,715.006018999964,None,715.006018999964,None,720.9779922999442,None,,,,,,,,,1,001,2020_Feb_06_1011,SlotMachTest,3.2.4,59.96828880666318,
4,8,65,0050:0060,EMPHASIZE,65%  WIN,100%  WIN,1,None,WIN,5.2,ad,,,,,0,5,5,5,0,2,2,7,,,,,,,,,,,,,,,,,,,730.9807908998337,None,,,726.9950757999904,None,2,2.432879700092599,726.9950757999904,None,726.9950757999904,None,726.9950757999904,None,726.9950757999904,None,726.9950757999904,None,726.9950757999904,728.4955414999276,726.9950757999904,None,726.9950757999904,None,732.984915799927,None,,,,,,,,,1,001,2020_Feb_06_1011,SlotMachTest,3.2.4,59.96828880666318,
6,12,50,0050:0060,EMPHASIZE,50%  LOSE,100%  LOSE,0,None,LOSE,6,equal,,,,,0,5,5,5,0,3,3,4,,,,,,,,,,,,,,,,,,,742.9742183999624,None,,,739.0043627999257,None,1,2.4871432001236826,739.0043627999257,None,739.0043627999257,None,739.0043627999257,None,739.0043627999257,None,739.0043627999257,None,739.0043627999257,740.5054907000158,739.0043627999257,None,739.0043627999257,None,744.9788664998487,None,,,,,,,,,1,001,2020_Feb_06_1011,SlotMachTest,3.2.4,59.96828880666318,
5,10,50,0050:0060,EMPHASIZE,50%  WIN,100%  WIN,1,None,WIN,5,equal,,,,,0,5,5,5,0,4,4,0,,,,,,,,,,,,,,,,,,,754.9840875999071,None,,,750.9972683999222,None,1,2.2382249999791384,750.9972683999222,None,750.9972683999222,None,750.9972683999222,None,750.9972683999222,None,750.9972683999222,None,750.9972683999222,752.4990369000006,750.9972683999222,None,750.9972683999222,None,756.9883078997955,None,,,,,,,,,1,001,2020_Feb_06_1011,SlotMachTest,3.2.4,59.96828880666318,
5,6,35,0050:0060,EMPHASIZE,35%  LOSE,100%  LOSE,0,None,LOSE,2.1,ad,,,,,0,5,5,5,0,5,5,3,,,,,,,,,,,,,,,,,,,766.9775230998639,None,,,762.9897955998313,None,1,3.685966399963945,762.9897955998313,None,762.9897955998313,None,762.9897955998313,None,762.9897955998313,None,762.9897955998313,None,762.9897955998313,764.4918650998734,762.9897955998313,None,762.9897955998313,None,768.9816742998082,None,,,,,,,,,1,001,2020_Feb_06_1011,SlotMachTest,3.2.4,59.96828880666318,
3,6,65,0050:0060,EMPHASIZE,65%  LOSE,100%  LOSE,0,None,LOSE,3.9,dis,,,,,0,5,5,5,0,6,6,6,,,,,,,,,,,,,,,,,,,778.9877228999976,None,,,775.0045866,None,1,2.7428082001861185,775.0045866,None,775.0045866,None,775.0045866,None,775.0045866,None,775.0045866,None,775.0045866,776.5189655998256,775.0045866,None,775.0045866,None,780.9760176998097,None,,,,,,,,,1,001,2020_Feb_06_1011,SlotMachTest,3.2.4,59.96828880666318,
3,11,35,0050:0060,EMPHASIZE,35%  LOSE,100%  LOSE,0,None,LOSE,~3,equal,,,,,0,5,5,5,0,7,7,8,,,,,,,,,,,,,,,,,,,790.9804543999489,None,,,786.9959833999164,None,None,,786.9959833999164,None,786.9959833999164,None,786.9959833999164,None,786.9959833999164,None,786.9959833999164,None,786.9959833999164,788.4953622999601,786.9959833999164,None,786.9959833999164,None,792.9863155998755,None,,,,,,,,,1,001,2020_Feb_06_1011,SlotMachTest,3.2.4,59.96828880666318,
7,10,35,0050:0060,EMPHASIZE,35%  WIN,100%  WIN,1,None,WIN,3.5,dis,,,,,0,5,5,5,0,8,8,5,,,,,,,,,,,,,,,,,,,802.9743430998642,None,,,799.0022137998603,None,2,2.553517899941653,799.0022137998603,None,799.0022137998603,None,799.0022137998603,None,799.0022137998603,None,799.0022137998603,None,799.0022137998603,800.505297199823,799.0022137998603,None,799.0022137998603,None,804.9793966999277,None,,,,,,,,,1,001,2020_Feb_06_1011,SlotMachTest,3.2.4,59.96828880666318,
4,7,50,0050:0060,EMPHASIZE,50%  LOSE,100%  LOSE,0,None,LOSE,-3.5,ad,,,,,0,5,5,5,0,9,9,1,,,,,,,,,,,,,,,,,,,814.9837857999373,None,,,810.9968317998573,None,1,2.286551000084728,810.9968317998573,None,810.9968317998573,None,810.9968317998573,None,810.9968317998573,None,810.9968317998573,None,810.9968317998573,812.4989890998695,810.9968317998573,None,810.9968317998573,None,816.9883667998947,None,,,,,,,,,1,001,2020_Feb_06_1011,SlotMachTest,3.2.4,59.96828880666318,
None,None,None,0050:0060,EMPHASIZE,None,None,None,None,,,,,,,,0,5,5,5,,,,,,,,,,,,,,,,,,,,,,,,,,,,,,,,,,,,,,,,,,,,,,,,,,,,,,,,,1,001,2020_Feb_06_1011,SlotMachTest,3.2.4,59.96828880666318,
