sure,gamble,gambleProb,Rows,CueType,gambleWinLoss,sureWinLoss,WinLossCode,WinLoss,Evgamble,riskyAdDis,PracticeLoop.thisRepN,PracticeLoop.thisTrialN,PracticeLoop.thisN,PracticeLoop.thisIndex,mainLoop.thisRepN,mainLoop.thisTrialN,mainLoop.thisN,mainLoop.thisIndex,trials.thisRepN,trials.thisTrialN,trials.thisN,trials.thisIndex,Instructions.started,Instructions.stopped,space.keys,space.rt,space.started,space.stopped,instruct2.started,instruct2.stopped,enter.keys,enter.rt,enter.started,enter.stopped,isi2.started,isi2.stopped,text.started,text.stopped,Line.started,Line.stopped,choice.keys,choice.rt,choice.started,choice.stopped,GambleAmt.started,GambleAmt.stopped,SureAmt.started,SureAmt.stopped,GambleProb.started,GambleProb.stopped,SureProb.started,SureProb.stopped,blank.started,blank.stopped,moneyBank.started,moneyBank.stopped,earningsText.started,earningsText.stopped,text_2.started,text_2.stopped,key_resp.keys,key_resp.rt,key_resp.started,key_resp.stopped,cue.started,cue.stopped,participant,session,date,expName,psychopyVersion,frameRate,
,,,,,,,,,,,,,,,,,,,,,,,13.988788100075908,None,space,1.5743011999875307,13.988788100075908,None,,,,,,,,,,,,,,,,,,,,,,,,,,,,,,,,,,,,,,,1,001,2019_Nov_11_1424,SlotMachTest,3.2.4,59.92103607125884,
,,,,,,,,,,,,,,,,,,,,,,,,,,,,,15.587160800001584,None,return,0.8399620000272989,15.587160800001584,None,,,,,,,,,,,,,,,,,,,,,,,,,,,,,,,,,1,001,2019_Nov_11_1424,SlotMachTest,3.2.4,59.92103607125884,
$4.50 ,$6.75 ,50.0,000:0010,EMPHASIZE,50%  WIN,100%  WIN,1.0,,,,0,0,0,0,,,,,,,,,,,,,,,,,,,,,20.472984899999574,None,18.455764300073497,None,22.50791330006905,None,2,1.5681728000054136,22.50791330006905,None,22.50791330006905,None,22.50791330006905,None,22.50791330006905,None,22.50791330006905,None,22.50791330006905,24.01053069997579,22.50791330006905,None,22.50791330006905,None,,,,,,,,,1,001,2019_Nov_11_1424,SlotMachTest,3.2.4,59.92103607125884,
$2.00 ,$4.25 ,65.0,00010:0020,DE-EMPHASIZE,65%  WIN,100%  WIN,1.0,,,,0,1,1,1,,,,,,,,,,,,,,,,,,,,,26.513408300001174,None,,,28.536878900020383,None,2,1.8901957999914885,28.536878900020383,None,28.536878900020383,None,28.536878900020383,None,28.536878900020383,None,28.536878900020383,None,28.536878900020383,30.048668100032955,28.536878900020383,None,28.536878900020383,None,,,,,,,,,1,001,2019_Nov_11_1424,SlotMachTest,3.2.4,59.92103607125884,
$3.75 ,$7.50 ,35.0,00020:0030,DE-EMPHASIZE,35%  LOSE,100%  LOSE,0.0,,,,0,2,2,2,,,,,,,,,,,,,,,,,,,,,32.55125870008487,None,,,34.583193200058304,None,2,0.563795999973081,34.583193200058304,None,34.583193200058304,None,34.583193200058304,None,34.583193200058304,None,34.583193200058304,None,34.583193200058304,36.08727000001818,34.583193200058304,None,34.583193200058304,None,,,,,,,,,1,001,2019_Nov_11_1424,SlotMachTest,3.2.4,59.92103607125884,
,,,,,,,,,,,,,,,,,,,,,,,,,,,,,,,,,,,,,,,,,,,,,,,,,,,,,,,,,,,38.595073600066826,None,space,1.0802708000410348,38.595073600066826,None,,,1,001,2019_Nov_11_1424,SlotMachTest,3.2.4,59.92103607125884,
$2.50 ,$6.75 ,50.0,000:0010,EMPHASIZE,50%  WIN,100%  WIN,1.0,WIN,3.375,ad,,,,,0,0,0,0,0,0,0,0,,,,,,,,,,,,,43.72756470006425,None,,,45.728368300013244,None,1,1.4994247000431642,45.728368300013244,None,45.728368300013244,None,45.728368300013244,None,45.728368300013244,None,45.728368300013244,None,45.728368300013244,47.230099500040524,45.728368300013244,None,45.728368300013244,None,,,,,,,41.73093930003233,None,1,001,2019_Nov_11_1424,SlotMachTest,3.2.4,59.92103607125884,
$4.25 ,$10.75 ,35.0,000:0010,EMPHASIZE,35%  WIN,100%  WIN,1.0,WIN,3.7625,dis,,,,,0,0,0,0,0,1,1,1,,,,,,,,,,,,,49.715268500032835,None,,,51.73598880006466,None,2,1.4750513000180945,51.73598880006466,None,51.73598880006466,None,51.73598880006466,None,51.73598880006466,None,51.73598880006466,None,51.73598880006466,53.25102510000579,51.73598880006466,None,51.73598880006466,None,,,,,,,,,1,001,2019_Nov_11_1424,SlotMachTest,3.2.4,59.92103607125884,
$3.50 ,$7.00 ,35.0,000:0010,EMPHASIZE,35%  WIN,100%  WIN,1.0,WIN,2.45,dis,,,,,0,0,0,0,0,2,2,4,,,,,,,,,,,,,55.72082759998739,None,,,57.74424380005803,None,2,2.4109933999134228,57.74424380005803,None,57.74424380005803,None,57.74424380005803,None,57.74424380005803,None,57.74424380005803,None,57.74424380005803,59.256811700062826,57.74424380005803,None,57.74424380005803,None,,,,,,,,,1,001,2019_Nov_11_1424,SlotMachTest,3.2.4,59.92103607125884,
$3.75 ,$5.50 ,65.0,000:0010,EMPHASIZE,65%  LOSE,100%  LOSE,0.0,LOSE,-3.575,ad,,,,,0,0,0,0,0,3,3,8,,,,,,,,,,,,,61.72499240003526,None,,,63.748346099979244,None,2,3.398640500032343,63.748346099979244,None,63.748346099979244,None,63.748346099979244,None,63.748346099979244,None,63.748346099979244,None,63.748346099979244,65.26114630000666,63.748346099979244,None,63.748346099979244,None,,,,,,,,,1,001,2019_Nov_11_1424,SlotMachTest,3.2.4,59.92103607125884,
$8.00 ,$12.50 ,65.0,000:0010,EMPHASIZE,65%  WIN,100%  WIN,1.0,WIN,8.125,ad,,,,,0,0,0,0,0,4,4,2,,,,,,,,,,,,,67.71310040005483,None,,,69.73922410001978,None,2,2.3519952000351623,69.73922410001978,None,69.73922410001978,None,69.73922410001978,None,69.73922410001978,None,69.73922410001978,None,69.73922410001978,71.24945970007684,69.73922410001978,None,69.73922410001978,None,,,,,,,,,1,001,2019_Nov_11_1424,SlotMachTest,3.2.4,59.92103607125884,
$4.25 ,$5.50 ,50.0,000:0010,EMPHASIZE,50%  LOSE,100%  LOSE,0.0,LOSE,-2.25,dis,,,,,0,0,0,0,0,5,5,5,,,,,,,,,,,,,73.71883869997691,None,,,75.74115020001773,None,2,0.6378308000275865,75.74115020001773,None,75.74115020001773,None,75.74115020001773,None,75.74115020001773,None,75.74115020001773,None,75.74115020001773,77.25440810003784,75.74115020001773,None,75.74115020001773,None,,,,,,,,,1,001,2019_Nov_11_1424,SlotMachTest,3.2.4,59.92103607125884,
$1.00 ,$4.25 ,35.0,000:0010,EMPHASIZE,35%  WIN,100%  WIN,1.0,WIN,1.4875,ad,,,,,0,0,0,0,0,6,6,3,,,,,,,,,,,,,79.723090399988,None,,,81.74298249999993,None,2,1.8358881999738514,81.74298249999993,None,81.74298249999993,None,81.74298249999993,None,81.74298249999993,None,81.74298249999993,None,81.74298249999993,83.2435026000021,81.74298249999993,None,81.74298249999993,None,,,,,,,,,1,001,2019_Nov_11_1424,SlotMachTest,3.2.4,59.92103607125884,
$2.25 ,$6.75 ,35.0,000:0010,EMPHASIZE,35%  LOSE,100%  LOSE,0.0,LOSE,-2.3625,dis,,,,,0,0,0,0,0,7,7,7,,,,,,,,,,,,,85.71168210008182,None,,,87.7321981000714,None,2,1.3827622999669984,87.7321981000714,None,87.7321981000714,None,87.7321981000714,None,87.7321981000714,None,87.7321981000714,None,87.7321981000714,89.24768720008433,87.7321981000714,None,87.7321981000714,None,,,,,,,,,1,001,2019_Nov_11_1424,SlotMachTest,3.2.4,59.92103607125884,
$4.25 ,$7.00 ,50.0,000:0010,EMPHASIZE,50%  LOSE,100%  LOSE,0.0,LOSE,-3.5,ad,,,,,0,0,0,0,0,8,8,9,,,,,,,,,,,,,91.71700499998406,None,,,93.7382792000426,None,2,1.3929308999795467,93.7382792000426,None,93.7382792000426,None,93.7382792000426,None,93.7382792000426,None,93.7382792000426,None,93.7382792000426,95.25271140004043,93.7382792000426,None,93.7382792000426,None,,,,,,,,,1,001,2019_Nov_11_1424,SlotMachTest,3.2.4,59.92103607125884,
$1.50 ,$3.75 ,50.0,000:0010,EMPHASIZE,50%  WIN,100%  WIN,1.0,WIN,1.875,ad,,,,,0,0,0,0,0,9,9,6,,,,,,,,,,,,,97.72198000003118,None,,,99.74310770002194,None,2,1.2280995999462903,99.74310770002194,None,99.74310770002194,None,99.74310770002194,None,99.74310770002194,None,99.74310770002194,None,99.74310770002194,101.25769670004956,99.74310770002194,None,99.74310770002194,None,,,,,,,,,1,001,2019_Nov_11_1424,SlotMachTest,3.2.4,59.92103607125884,
$4.50 ,$6.75 ,50.0,000:0010,EMPHASIZE,50%  WIN,100%  WIN,1.0,,,,,,,,0,0,0,0,,,,,,,,,,,,,,,,,,,,,,,,,,,,,,,,,,,,,,,,,,,,,,,,,1,001,2019_Nov_11_1424,SlotMachTest,3.2.4,59.92103607125884,
$1.50 ,$3.85 ,50.0,00010:0020,DE-EMPHASIZE,50%  LOSE,100%  LOSE,0.0,LOSE,-1.925,dis,,,,,0,1,1,1,0,0,0,5,,,,,,,,,,,,,107.71298509999178,None,,,109.73505540005863,None,1,1.5719450999749824,109.73505540005863,None,109.73505540005863,None,109.73505540005863,None,109.73505540005863,None,109.73505540005863,None,109.73505540005863,111.24941679998301,109.73505540005863,None,109.73505540005863,None,,,,,,,105.71977389999665,None,1,001,2019_Nov_11_1424,SlotMachTest,3.2.4,59.92103607125884,
$3.75 ,$5.50 ,65.0,00010:0020,DE-EMPHASIZE,65%  WIN,100%  WIN,1.0,WIN,3.575,dis,,,,,0,1,1,1,0,1,1,1,,,,,,,,,,,,,113.71836790000089,None,,,115.73892270005308,None,2,1.8719696999760345,115.73892270005308,None,115.73892270005308,None,115.73892270005308,None,115.73892270005308,None,115.73892270005308,None,115.73892270005308,117.25411039998289,115.73892270005308,None,115.73892270005308,None,,,,,,,,,1,001,2019_Nov_11_1424,SlotMachTest,3.2.4,59.92103607125884,
$2.95 ,$6.75 ,35.0,00010:0020,DE-EMPHASIZE,35%  WIN,100%  WIN,1.0,WIN,2.3625,dis,,,,,0,1,1,1,0,2,2,9,,,,,,,,,,,,,119.72302799997851,None,,,121.74622740002815,None,2,1.4327526999404654,121.74622740002815,None,121.74622740002815,None,121.74622740002815,None,121.74622740002815,None,121.74622740002815,None,121.74622740002815,123.25928070000373,121.74622740002815,None,121.74622740002815,None,,,,,,,,,1,001,2019_Nov_11_1424,SlotMachTest,3.2.4,59.92103607125884,
$2.95 ,$6.75 ,35.0,00010:0020,DE-EMPHASIZE,35%  LOSE,100%  LOSE,0.0,LOSE,-2.3625,ad,,,,,0,1,1,1,0,3,3,6,,,,,,,,,,,,,125.71140590007417,None,,,127.73182690003887,None,2,1.7512043999740854,127.73182690003887,None,127.73182690003887,None,127.73182690003887,None,127.73182690003887,None,127.73182690003887,None,127.73182690003887,129.24744080007076,127.73182690003887,None,127.73182690003887,None,,,,,,,,,1,001,2019_Nov_11_1424,SlotMachTest,3.2.4,59.92103607125884,
$3.25 ,$7.00 ,50.0,00010:0020,DE-EMPHASIZE,50%  WIN,100%  WIN,1.0,WIN,3.5,ad,,,,,0,1,1,1,0,4,4,4,,,,,,,,,,,,,131.71782979997806,None,,,133.73740980005823,None,2,1.4099104000488296,133.73740980005823,None,133.73740980005823,None,133.73740980005823,None,133.73740980005823,None,133.73740980005823,None,133.73740980005823,135.25235510000493,133.73740980005823,None,133.73740980005823,None,,,,,,,,,1,001,2019_Nov_11_1424,SlotMachTest,3.2.4,59.92103607125884,
$3.25 ,$7.00 ,50.0,00010:0020,DE-EMPHASIZE,50%  WIN,100%  WIN,1.0,WIN,3.5,ad,,,,,0,1,1,1,0,5,5,2,,,,,,,,,,,,,137.72182119998615,None,,,139.74085100006778,None,2,1.342285000020638,139.74085100006778,None,139.74085100006778,None,139.74085100006778,None,139.74085100006778,None,139.74085100006778,None,139.74085100006778,141.24101190001238,139.74085100006778,None,139.74085100006778,None,,,,,,,,,1,001,2019_Nov_11_1424,SlotMachTest,3.2.4,59.92103607125884,
$3.00 ,$4.75 ,35.0,00010:0020,DE-EMPHASIZE,35%  WIN,100%  WIN,1.0,WIN,1.663,dis,,,,,0,1,1,1,0,6,6,3,,,,,,,,,,,,,143.7261324999854,None,,,145.73181610007305,None,2,1.127588100032881,145.73181610007305,None,145.73181610007305,None,145.73181610007305,None,145.73181610007305,None,145.73181610007305,None,145.73181610007305,147.2459688000381,145.73181610007305,None,145.73181610007305,None,,,,,,,,,1,001,2019_Nov_11_1424,SlotMachTest,3.2.4,59.92103607125884,
$2.50 ,$6.75 ,35.0,00010:0020,DE-EMPHASIZE,35%  WIN,100%  WIN,1.0,WIN,2.3625,dis,,,,,0,1,1,1,0,7,7,0,,,,,,,,,,,,,149.71456170000602,None,,,151.73527710000053,None,2,3.411608000053093,151.73527710000053,None,151.73527710000053,None,151.73527710000053,None,151.73527710000053,None,151.73527710000053,None,151.73527710000053,153.25079499999993,151.73527710000053,None,151.73527710000053,None,,,,,,,,,1,001,2019_Nov_11_1424,SlotMachTest,3.2.4,59.92103607125884,
$4.25 ,$7.00 ,50.0,00010:0020,DE-EMPHASIZE,50%  LOSE,100%  LOSE,0.0,LOSE,-3.5,ad,,,,,0,1,1,1,0,8,8,8,,,,,,,,,,,,,155.7202090000501,None,,,157.740896500065,None,1,2.4465801999904215,157.740896500065,None,157.740896500065,None,157.740896500065,None,157.740896500065,None,157.740896500065,None,157.740896500065,159.25585409998894,157.740896500065,None,157.740896500065,None,,,,,,,,,1,001,2019_Nov_11_1424,SlotMachTest,3.2.4,59.92103607125884,
$3.75 ,$5.50 ,65.0,00010:0020,DE-EMPHASIZE,65%  LOSE,100%  LOSE,0.0,LOSE,-3.575,ad,,,,,0,1,1,1,0,9,9,7,,,,,,,,,,,,,161.72436950006522,None,,,163.74938130006194,None,1,2.05356639996171,163.74938130006194,None,163.74938130006194,None,163.74938130006194,None,163.74938130006194,None,163.74938130006194,None,163.74938130006194,165.2606937000528,163.74938130006194,None,163.74938130006194,None,,,,,,,,,1,001,2019_Nov_11_1424,SlotMachTest,3.2.4,59.92103607125884,
$2.00 ,$4.25 ,65.0,00010:0020,DE-EMPHASIZE,65%  WIN,100%  WIN,1.0,,,,,,,,0,1,1,1,,,,,,,,,,,,,,,,,,,,,,,,,,,,,,,,,,,,,,,,,,,,,,,,,1,001,2019_Nov_11_1424,SlotMachTest,3.2.4,59.92103607125884,
$1.25 ,$4.50 ,35.0,00020:0030,DE-EMPHASIZE,35%  LOSE,100%  LOSE,0.0,LOSE,-1.575,dis,,,,,0,2,2,2,0,0,0,4,,,,,,,,,,,,,171.71719310001936,None,,,173.739556799992,None,1,1.6794353000586852,173.739556799992,None,173.739556799992,None,173.739556799992,None,173.739556799992,None,173.739556799992,None,173.739556799992,175.25251670007128,173.739556799992,None,173.739556799992,None,,,,,,,169.71456059999764,None,1,001,2019_Nov_11_1424,SlotMachTest,3.2.4,59.92103607125884,
$3.15 ,$6.75 ,50.0,00020:0030,DE-EMPHASIZE,35%  WIN,100%  WIN,1.0,WIN,3.375,ad,,,,,0,2,2,2,0,1,1,2,,,,,,,,,,,,,177.72199540003203,None,,,179.7409226000309,None,2,1.8382979999296367,179.7409226000309,None,179.7409226000309,None,179.7409226000309,None,179.7409226000309,None,179.7409226000309,None,179.7409226000309,181.24081460002344,179.7409226000309,None,179.7409226000309,None,,,,,,,,,1,001,2019_Nov_11_1424,SlotMachTest,3.2.4,59.92103607125884,
$2.75 ,$5.00 ,35.0,00020:0030,DE-EMPHASIZE,35%  WIN,100%  WIN,1.0,WIN,1.75,dis,,,,,0,2,2,2,0,2,2,1,,,,,,,,,,,,,183.72609660006128,None,,,185.732240500045,None,2,1.9746894999407232,185.732240500045,None,185.732240500045,None,185.732240500045,None,185.732240500045,None,185.732240500045,None,185.732240500045,187.2457041000016,185.732240500045,None,185.732240500045,None,,,,,,,,,1,001,2019_Nov_11_1424,SlotMachTest,3.2.4,59.92103607125884,
$2.25 ,$6.50 ,35.0,00020:0030,DE-EMPHASIZE,35%  WIN,100%  WIN,1.0,WIN,2.275,ad,,,,,0,2,2,2,0,3,3,3,,,,,,,,,,,,,189.71456490003038,None,,,191.73427870008163,None,2,1.3811343000270426,191.73427870008163,None,191.73427870008163,None,191.73427870008163,None,191.73427870008163,None,191.73427870008163,None,191.73427870008163,193.23383460007608,191.73427870008163,None,191.73427870008163,None,,,,,,,,,1,001,2019_Nov_11_1424,SlotMachTest,3.2.4,59.92103607125884,
$5.50 ,$8.75 ,65.0,00020:0030,DE-EMPHASIZE,65%  WIN,100%  WIN,1.0,WIN,5.6875,ad,,,,,0,2,2,2,0,4,4,0,,,,,,,,,,,,,195.720235100016,None,,,197.7429065000033,None,2,1.611966700060293,197.7429065000033,None,197.7429065000033,None,197.7429065000033,None,197.7429065000033,None,197.7429065000033,None,197.7429065000033,199.2556704999879,197.7429065000033,None,197.7429065000033,None,,,,,,,,,1,001,2019_Nov_11_1424,SlotMachTest,3.2.4,59.92103607125884,
$6.00 ,$9.75 ,35.0,00020:0030,DE-EMPHASIZE,35%  LOSE,100%  LOSE,0.0,LOSE,-3.4130000000000003,ad,,,,,0,2,2,2,0,5,5,8,,,,,,,,,,,,,201.72440180007834,None,,,203.74939420004375,None,2,0.5015977999428287,203.74939420004375,None,203.74939420004375,None,203.74939420004375,None,203.74939420004375,None,203.74939420004375,None,203.74939420004375,205.26047890004702,203.74939420004375,None,203.74939420004375,None,,,,,,,,,1,001,2019_Nov_11_1424,SlotMachTest,3.2.4,59.92103607125884,
$4.75 ,$7.50 ,65.0,00020:0030,DE-EMPHASIZE,65%  LOSE,100%  LOSE,0.0,LOSE,-4.875,dis,,,,,0,2,2,2,0,6,6,6,,,,,,,,,,,,,207.71247839997523,None,,,209.73519160004798,None,1,1.699731900007464,209.73519160004798,None,209.73519160004798,None,209.73519160004798,None,209.73519160004798,None,209.73519160004798,None,209.73519160004798,211.24911990005057,209.73519160004798,None,209.73519160004798,None,,,,,,,,,1,001,2019_Nov_11_1424,SlotMachTest,3.2.4,59.92103607125884,
$1.75 ,$4.00 ,50.0,00020:0030,DE-EMPHASIZE,35%  LOSE,100%  LOSE,0.0,LOSE,-2.0,dis,,,,,0,2,2,2,0,7,7,7,,,,,,,,,,,,,213.71860390005168,None,,,215.7401207999792,None,2,2.2709216000512242,215.7401207999792,None,215.7401207999792,None,215.7401207999792,None,215.7401207999792,None,215.7401207999792,None,215.7401207999792,217.25376660004258,215.7401207999792,None,215.7401207999792,None,,,,,,,,,1,001,2019_Nov_11_1424,SlotMachTest,3.2.4,59.92103607125884,
$2.75 ,$5.00 ,65.0,00020:0030,DE-EMPHASIZE,65%  LOSE,100%  LOSE,0.0,LOSE,-3.25,dis,,,,,0,2,2,2,0,8,8,5,,,,,,,,,,,,,219.72280430002138,None,,,221.7435502000153,None,2,1.451352300005965,221.7435502000153,None,221.7435502000153,None,221.7435502000153,None,221.7435502000153,None,221.7435502000153,None,221.7435502000153,223.25876500003505,221.7435502000153,None,221.7435502000153,None,,,,,,,,,1,001,2019_Nov_11_1424,SlotMachTest,3.2.4,59.92103607125884,
$1.50 ,$3.85 ,50.0,00020:0030,DE-EMPHASIZE,50%  WIN,100%  WIN,1.0,WIN,1.925,ad,,,,,0,2,2,2,0,9,9,9,,,,,,,,,,,,,225.7109611000633,None,,,227.76638400007505,None,2,1.4125075000338256,227.76638400007505,None,227.76638400007505,None,227.76638400007505,None,227.76638400007505,None,227.76638400007505,None,227.76638400007505,229.28062840003986,227.76638400007505,None,227.76638400007505,None,,,,,,,,,1,001,2019_Nov_11_1424,SlotMachTest,3.2.4,59.92103607125884,
$3.75 ,$7.50 ,35.0,00020:0030,DE-EMPHASIZE,35%  LOSE,100%  LOSE,0.0,,,,,,,,0,2,2,2,,,,,,,,,,,,,,,,,,,,,,,,,,,,,,,,,,,,,,,,,,,,,,,,,1,001,2019_Nov_11_1424,SlotMachTest,3.2.4,59.92103607125884,
$4.25 ,$9.00 ,50.0,0030:0040,EMPHASIZE,50%  WIN,100%  WIN,1.0,WIN,3.5,ad,,,,,0,3,3,3,0,0,0,9,,,,,,,,,,,,,235.72018040006515,None,,,237.74013330007438,None,2,1.5188146000728011,237.74013330007438,None,237.74013330007438,None,237.74013330007438,None,237.74013330007438,None,237.74013330007438,None,237.74013330007438,239.25571669999044,237.74013330007438,None,237.74013330007438,None,,,,,,,233.71828010003082,None,1,001,2019_Nov_11_1424,SlotMachTest,3.2.4,59.92103607125884,
$2.95 ,$6.75 ,35.0,0030:0040,EMPHASIZE,35%  WIN,100%  WIN,1.0,WIN,2.363,dis,,,,,0,3,3,3,0,1,1,7,,,,,,,,,,,,,241.72417379997205,None,,,243.74210120004136,None,2,1.6928467999678105,243.74210120004136,None,243.74210120004136,None,243.74210120004136,None,243.74210120004136,None,243.74210120004136,None,243.74210120004136,245.24390330002643,243.74210120004136,None,243.74210120004136,None,,,,,,,,,1,001,2019_Nov_11_1424,SlotMachTest,3.2.4,59.92103607125884,
$1.25 ,$4.75 ,35.0,0030:0040,EMPHASIZE,35%  WIN,100%  WIN,1.0,WIN,1.663,ad,,,,,0,3,3,3,0,2,2,3,,,,,,,,,,,,,247.7125315000303,None,,,249.73214380000718,None,None,,249.73214380000718,None,249.73214380000718,None,249.73214380000718,None,249.73214380000718,None,249.73214380000718,None,249.73214380000718,251.232127700001,249.73214380000718,None,249.73214380000718,None,,,,,,,,,1,001,2019_Nov_11_1424,SlotMachTest,3.2.4,59.92103607125884,
$6.15 ,$9.75 ,35.0,0030:0040,EMPHASIZE,35%  LOSE,100%  LOSE,0.0,LOSE,-3.4130000000000003,ad,,,,,0,3,3,3,0,3,3,5,,,,,,,,,,,,,253.7183482000837,None,,,255.73658929998055,None,None,,255.73658929998055,None,255.73658929998055,None,255.73658929998055,None,255.73658929998055,None,255.73658929998055,None,255.73658929998055,257.2371520000743,255.73658929998055,None,255.73658929998055,None,,,,,,,,,1,001,2019_Nov_11_1424,SlotMachTest,3.2.4,59.92103607125884,
$3.75 ,$6.00 ,65.0,0030:0040,EMPHASIZE,65%  LOSE,100%  LOSE,0.0,LOSE,-3.9,dis,,,,,0,3,3,3,0,4,4,4,,,,,,,,,,,,,259.7229468000587,None,,,261.74230709997937,None,2,0.8925902000628412,261.74230709997937,None,261.74230709997937,None,261.74230709997937,None,261.74230709997937,None,261.74230709997937,None,261.74230709997937,263.2420987000223,261.74230709997937,None,261.74230709997937,None,,,,,,,,,1,001,2019_Nov_11_1424,SlotMachTest,3.2.4,59.92103607125884,
$3.75 ,$5.25 ,65.0,0030:0040,EMPHASIZE,65%  WIN,100%  WIN,1.0,WIN,3.1430000000000002,dis,,,,,0,3,3,3,0,5,5,8,,,,,,,,,,,,,265.71075650001876,None,,,267.7315457999939,None,2,1.0635873000137508,267.7315457999939,None,267.7315457999939,None,267.7315457999939,None,267.7315457999939,None,267.7315457999939,None,267.7315457999939,269.247265300015,267.7315457999939,None,267.7315457999939,None,,,,,,,,,1,001,2019_Nov_11_1424,SlotMachTest,3.2.4,59.92103607125884,
$1.50 ,$3.85 ,50.0,0030:0040,EMPHASIZE,50%  WIN,100%  WIN,1.0,WIN,1.925,ad,,,,,0,3,3,3,0,6,6,6,,,,,,,,,,,,,271.71627770003397,None,,,273.7364265000215,None,1,1.234505599946715,273.7364265000215,None,273.7364265000215,None,273.7364265000215,None,273.7364265000215,None,273.7364265000215,None,273.7364265000215,275.25191210000776,273.7364265000215,None,273.7364265000215,None,,,,,,,,,1,001,2019_Nov_11_1424,SlotMachTest,3.2.4,59.92103607125884,
$4.25 ,$7.00 ,50.0,0030:0040,EMPHASIZE,50%  WIN,100%  WIN,1.0,WIN,3.5,dis,,,,,0,3,3,3,0,7,7,2,,,,,,,,,,,,,277.7222179999808,None,,,279.74068180006,None,2,1.1345005999319255,279.74068180006,None,279.74068180006,None,279.74068180006,None,279.74068180006,None,279.74068180006,None,279.74068180006,281.24053459998686,279.74068180006,None,279.74068180006,None,,,,,,,,,1,001,2019_Nov_11_1424,SlotMachTest,3.2.4,59.92103607125884,
$3.75 ,$5.25 ,65.0,0030:0040,EMPHASIZE,65%  WIN,100%  WIN,1.0,WIN,3.1430000000000002,dis,,,,,0,3,3,3,0,8,8,1,,,,,,,,,,,,,283.7257626000792,None,,,285.7290861000074,None,1,1.3698370000347495,285.7290861000074,None,285.7290861000074,None,285.7290861000074,None,285.7290861000074,None,285.7290861000074,None,285.7290861000074,287.2286377000855,285.7290861000074,None,285.7290861000074,None,,,,,,,,,1,001,2019_Nov_11_1424,SlotMachTest,3.2.4,59.92103607125884,
$2.50 ,$7.25 ,35.0,0030:0040,EMPHASIZE,35%  WIN,100%  WIN,1.0,WIN,2.275,ad,,,,,0,3,3,3,0,9,9,0,,,,,,,,,,,,,289.71395080001093,None,,,291.7371439000126,None,1,1.3456976000452414,291.7371439000126,None,291.7371439000126,None,291.7371439000126,None,291.7371439000126,None,291.7371439000126,None,291.7371439000126,293.2503438000567,291.7371439000126,None,291.7371439000126,None,,,,,,,,,1,001,2019_Nov_11_1424,SlotMachTest,3.2.4,59.92103607125884,
None,None,None,0030:0040,EMPHASIZE,None,None,None,,,,,,,,0,3,3,3,,,,,,,,,,,,,,,,,,,,,,,,,,,,,,,,,,,,,,,,,,,,,,,,,1,001,2019_Nov_11_1424,SlotMachTest,3.2.4,59.92103607125884,
$6.75 ,$8.25 ,35.0,0040:0050,DE-EMPHASIZE,35%  WIN,100%  WIN,1.0,WIN,2.888,dis,,,,,0,4,4,4,0,0,0,9,,,,,,,,,,,,,299.722971900017,None,,,301.74219150003046,None,2,1.58133249997627,301.74219150003046,None,301.74219150003046,None,301.74219150003046,None,301.74219150003046,None,301.74219150003046,None,301.74219150003046,303.2421306000324,301.74219150003046,None,301.74219150003046,None,,,,,,,297.72198600007687,None,1,001,2019_Nov_11_1424,SlotMachTest,3.2.4,59.92103607125884,
$5.00 ,$6.95 ,65.0,0040:0050,DE-EMPHASIZE,65%  WIN,100%  WIN,1.0,WIN,4.518,dis,,,,,0,4,4,4,0,1,1,7,,,,,,,,,,,,,305.7108440999873,None,,,307.7353031000821,None,2,1.4116415000753477,307.7353031000821,None,307.7353031000821,None,307.7353031000821,None,307.7353031000821,None,307.7353031000821,None,307.7353031000821,309.24711920006666,307.7353031000821,None,307.7353031000821,None,,,,,,,,,1,001,2019_Nov_11_1424,SlotMachTest,3.2.4,59.92103607125884,
$3.95 ,$6.00 ,65.0,0040:0050,DE-EMPHASIZE,65%  LOSE,100%  LOSE,0.0,LOSE,-3.9,ad,,,,,0,4,4,4,0,2,2,1,,,,,,,,,,,,,311.71578430000227,None,,,313.73866460006684,None,2,1.408470399910584,313.73866460006684,None,313.73866460006684,None,313.73866460006684,None,313.73866460006684,None,313.73866460006684,None,313.73866460006684,315.2520947000012,313.73866460006684,None,313.73866460006684,None,,,,,,,,,1,001,2019_Nov_11_1424,SlotMachTest,3.2.4,59.92103607125884,
$4.75 ,$10.00 ,50.0,0040:0050,DE-EMPHASIZE,50%  WIN,100%  WIN,1.0,WIN,5.0,ad,,,,,0,4,4,4,0,3,3,8,,,,,,,,,,,,,317.7213125000708,None,,,319.74091499997303,None,2,1.6939611000707373,319.74091499997303,None,319.74091499997303,None,319.74091499997303,None,319.74091499997303,None,319.74091499997303,None,319.74091499997303,321.24036669998895,319.74091499997303,None,319.74091499997303,None,,,,,,,,,1,001,2019_Nov_11_1424,SlotMachTest,3.2.4,59.92103607125884,
$3.25 ,$4.50 ,65.0,0040:0050,DE-EMPHASIZE,65%  LOSE,100%  LOSE,0.0,LOSE,-2.925,ad,,,,,0,4,4,4,0,4,4,5,,,,,,,,,,,,,323.72546310001053,None,,,325.7341709000757,None,2,1.0446614000247791,325.7341709000757,None,325.7341709000757,None,325.7341709000757,None,325.7341709000757,None,325.7341709000757,None,325.7341709000757,327.2451564000221,325.7341709000757,None,325.7341709000757,None,,,,,,,,,1,001,2019_Nov_11_1424,SlotMachTest,3.2.4,59.92103607125884,
,,,,,,,,,,,,,,,,,,,,,,,,,,,,,,,,,,,329.7140484000556,None,,,,,,,,,,,,,,,,,,,,,,,,,,,,,,,,,,,,,
