sure,gamble,gambleProb,Rows,CueType,gambleWinLoss,sureWinLoss,WinLossCode,plus,WinLoss,Evgamble,riskyAdDis,PracticeLoop.thisRepN,PracticeLoop.thisTrialN,PracticeLoop.thisN,PracticeLoop.thisIndex,mainLoop.thisRepN,mainLoop.thisTrialN,mainLoop.thisN,mainLoop.thisIndex,trials.thisRepN,trials.thisTrialN,trials.thisN,trials.thisIndex,Instructions.started,Instructions.stopped,space.keys,space.rt,space.started,space.stopped,instruct2.started,instruct2.stopped,enter.keys,enter.rt,enter.started,enter.stopped,isi2.started,isi2.stopped,text.started,text.stopped,Line.started,Line.stopped,choice.keys,choice.started,choice.stopped,GambleAmt.started,GambleAmt.stopped,SureAmt.started,SureAmt.stopped,GambleProb.started,GambleProb.stopped,SureProb.started,SureProb.stopped,blank.started,blank.stopped,moneyBank.started,moneyBank.stopped,earningsText.started,earningsText.stopped,text_2.started,text_2.stopped,key_resp.keys,key_resp.rt,key_resp.started,key_resp.stopped,cue.started,cue.stopped,choice.rt,participant,session,date,expName,psychopyVersion,frameRate,
,,,,,,,,,,,,,,,,,,,,,,,,12.157056200085208,None,space,7.597761299926788,12.157056200085208,None,,,,,,,,,,,,,,,,,,,,,,,,,,,,,,,,,,,,,,,2,001,2019_Nov_12_1348,SlotMachTest,3.2.4,60.18614372137362,
,,,,,,,,,,,,,,,,,,,,,,,,,,,,,,19.773425899911672,None,return,0.5088917000684887,19.773425899911672,None,,,,,,,,,,,,,,,,,,,,,,,,,,,,,,,,,2,001,2019_Nov_12_1348,SlotMachTest,3.2.4,60.18614372137362,
4.5,6.75,50.0,000:0010,EMPHASIZE,50%  WIN,100%  WIN,1.0,+,,,,0,0,0,0,,,,,,,,,,,,,,,,,,,,,24.327764600049704,None,22.308536800090224,None,26.360500399954617,None,None,26.360500399954617,None,26.360500399954617,None,26.360500399954617,None,26.360500399954617,None,26.360500399954617,None,26.360500399954617,27.86343830008991,26.360500399954617,None,26.360500399954617,None,,,,,,,,,,2,001,2019_Nov_12_1348,SlotMachTest,3.2.4,60.18614372137362,
2.0,4.25,65.0,00010:0020,DE-EMPHASIZE,65%  WIN,100%  WIN,1.0,+,,,,0,1,1,1,,,,,,,,,,,,,,,,,,,,,30.36583929997869,None,,,32.385580899892375,None,None,32.385580899892375,None,32.385580899892375,None,32.385580899892375,None,32.385580899892375,None,32.385580899892375,None,32.385580899892375,33.88505550008267,32.385580899892375,None,32.385580899892375,None,,,,,,,,,,2,001,2019_Nov_12_1348,SlotMachTest,3.2.4,60.18614372137362,
3.75,7.5,35.0,00020:0030,DE-EMPHASIZE,35%  LOSE,100%  LOSE,0.0,+,,,,0,2,2,2,,,,,,,,,,,,,,,,,,,,,36.38721750001423,None,,,38.41590070002712,None,None,38.41590070002712,None,38.41590070002712,None,38.41590070002712,None,38.41590070002712,None,38.41590070002712,None,38.41590070002712,39.92340960004367,38.41590070002712,None,38.41590070002712,None,,,,,,,,,,2,001,2019_Nov_12_1348,SlotMachTest,3.2.4,60.18614372137362,
,,,,,,,,,,,,,,,,,,,,,,,,,,,,,,,,,,,,,,,,,,,,,,,,,,,,,,,,,,,42.42581870011054,None,space,13.18437230004929,42.42581870011054,None,,,,2,001,2019_Nov_12_1348,SlotMachTest,3.2.4,60.18614372137362,
1.0,4.25,35.0,000:0010,EMPHASIZE,35%  WIN,100%  WIN,1.0,+,WIN,1.4875,ad,,,,,0,0,0,0,0,0,0,3,,,,,,,,,,,,,59.656739299884066,None,,,61.658805700019,None,2,61.658805700019,None,61.658805700019,None,61.658805700019,None,61.658805700019,None,61.658805700019,None,61.658805700019,63.15945179993287,61.658805700019,None,61.658805700019,None,,,,,,,57.65783870010637,None,3.6311168000102043,2,001,2019_Nov_12_1348,SlotMachTest,3.2.4,60.18614372137362,
1.5,3.75,50.0,000:0010,EMPHASIZE,50%  WIN,100%  WIN,1.0,+,WIN,1.875,ad,,,,,0,0,0,0,0,1,1,6,,,,,,,,,,,,,65.64497189992107,None,,,67.66098879999481,None,None,67.66098879999481,None,67.66098879999481,None,67.66098879999481,None,67.66098879999481,None,67.66098879999481,None,67.66098879999481,69.16519850003533,67.66098879999481,None,67.66098879999481,None,,,,,,,,,,2,001,2019_Nov_12_1348,SlotMachTest,3.2.4,60.18614372137362,
8.0,12.5,65.0,000:0010,EMPHASIZE,65%  WIN,100%  WIN,1.0,+,WIN,8.125,ad,,,,,0,0,0,0,0,2,2,2,,,,,,,,,,,,,71.64958809991367,None,,,73.66759379999712,None,None,73.66759379999712,None,73.66759379999712,None,73.66759379999712,None,73.66759379999712,None,73.66759379999712,None,73.66759379999712,75.16943609993905,73.66759379999712,None,73.66759379999712,None,,,,,,,,,,2,001,2019_Nov_12_1348,SlotMachTest,3.2.4,60.18614372137362,
4.25,7.0,50.0,000:0010,EMPHASIZE,50%  LOSE,100%  LOSE,0.0,+,LOSE,-3.5,ad,,,,,0,0,0,0,0,3,3,9,,,,,,,,,,,,,77.65494720009156,None,,,79.6712688000407,None,None,79.6712688000407,None,79.6712688000407,None,79.6712688000407,None,79.6712688000407,None,79.6712688000407,None,79.6712688000407,81.17427499988116,79.6712688000407,None,79.6712688000407,None,,,,,,,,,,2,001,2019_Nov_12_1348,SlotMachTest,3.2.4,60.18614372137362,
2.25,6.75,35.0,000:0010,EMPHASIZE,35%  LOSE,100%  LOSE,0.0,+,LOSE,-2.3625,dis,,,,,0,0,0,0,0,4,4,7,,,,,,,,,,,,,83.64322469988838,None,,,85.66006299993023,None,1,85.66006299993023,None,85.66006299993023,None,85.66006299993023,None,85.66006299993023,None,85.66006299993023,None,85.66006299993023,87.16264329990372,85.66006299993023,None,85.66006299993023,None,,,,,,,,,2.0139248999767005,2,001,2019_Nov_12_1348,SlotMachTest,3.2.4,60.18614372137362,
2.5,6.75,50.0,000:0010,EMPHASIZE,50%  WIN,100%  WIN,1.0,+,WIN,3.375,ad,,,,,0,0,0,0,0,5,5,0,,,,,,,,,,,,,89.64616800006479,None,,,91.66487749991938,None,None,91.66487749991938,None,91.66487749991938,None,91.66487749991938,None,91.66487749991938,None,91.66487749991938,None,91.66487749991938,93.16803480009548,91.66487749991938,None,91.66487749991938,None,,,,,,,,,,2,001,2019_Nov_12_1348,SlotMachTest,3.2.4,60.18614372137362,
4.25,5.5,50.0,000:0010,EMPHASIZE,50%  LOSE,100%  LOSE,0.0,+,LOSE,-2.25,dis,,,,,0,0,0,0,0,6,6,5,,,,,,,,,,,,,95.65323420008644,None,,,97.66827180003747,None,None,97.66827180003747,None,97.66827180003747,None,97.66827180003747,None,97.66827180003747,None,97.66827180003747,None,97.66827180003747,99.17250060010701,97.66827180003747,None,97.66827180003747,None,,,,,,,,,,2,001,2019_Nov_12_1348,SlotMachTest,3.2.4,60.18614372137362,
3.5,7.0,35.0,000:0010,EMPHASIZE,35%  WIN,100%  WIN,1.0,+,WIN,2.45,dis,,,,,0,0,0,0,0,7,7,4,,,,,,,,,,,,,101.64137189998291,None,,,103.65554059995338,None,None,103.65554059995338,None,103.65554059995338,None,103.65554059995338,None,103.65554059995338,None,103.65554059995338,None,103.65554059995338,105.16240109992214,103.65554059995338,None,103.65554059995338,None,,,,,,,,,,2,001,2019_Nov_12_1348,SlotMachTest,3.2.4,60.18614372137362,
3.75,5.5,65.0,000:0010,EMPHASIZE,65%  LOSE,100%  LOSE,0.0,+,LOSE,-3.575,ad,,,,,0,0,0,0,0,8,8,8,,,,,,,,,,,,,107.64646310009994,None,,,109.66348069999367,None,None,109.66348069999367,None,109.66348069999367,None,109.66348069999367,None,109.66348069999367,None,109.66348069999367,None,109.66348069999367,111.16593419993296,109.66348069999367,None,109.66348069999367,None,,,,,,,,,,2,001,2019_Nov_12_1348,SlotMachTest,3.2.4,60.18614372137362,
4.25,10.75,35.0,000:0010,EMPHASIZE,35%  WIN,100%  WIN,1.0,+,WIN,3.7625,dis,,,,,0,0,0,0,0,9,9,1,,,,,,,,,,,,,113.65149730001576,None,,,115.66725390008651,None,1,115.66725390008651,None,115.66725390008651,None,115.66725390008651,None,115.66725390008651,None,115.66725390008651,None,115.66725390008651,117.17068740003742,115.66725390008651,None,115.66725390008651,None,,,,,,,,,0.5990486000664532,2,001,2019_Nov_12_1348,SlotMachTest,3.2.4,60.18614372137362,
4.5,6.75,50.0,000:0010,EMPHASIZE,50%  WIN,100%  WIN,1.0,+,,,,,,,,0,0,0,0,,,,,,,,,,,,,,,,,,,,,,,,,,,,,,,,,,,,,,,,,,,,,,,,,2,001,2019_Nov_12_1348,SlotMachTest,3.2.4,60.18614372137362,
2.95,6.75,35.0,00010:0020,DE-EMPHASIZE,35%  WIN,100%  WIN,1.0,+,WIN,2.3625,dis,,,,,0,1,1,1,0,0,0,9,,,,,,,,,,,,,123.64313509990461,None,,,125.66309210006148,None,None,125.66309210006148,None,125.66309210006148,None,125.66309210006148,None,125.66309210006148,None,125.66309210006148,None,125.66309210006148,127.16255640005693,125.66309210006148,None,125.66309210006148,None,,,,,,,121.64739930001087,None,,2,001,2019_Nov_12_1348,SlotMachTest,3.2.4,60.18614372137362,
1.5,3.85,50.0,00010:0020,DE-EMPHASIZE,50%  LOSE,100%  LOSE,0.0,+,LOSE,-1.925,dis,,,,,0,1,1,1,0,1,1,5,,,,,,,,,,,,,129.64792230003513,None,,,131.66554880002514,None,None,131.66554880002514,None,131.66554880002514,None,131.66554880002514,None,131.66554880002514,None,131.66554880002514,None,131.66554880002514,133.16744329989888,131.66554880002514,None,131.66554880002514,None,,,,,,,,,,2,001,2019_Nov_12_1348,SlotMachTest,3.2.4,60.18614372137362,
3.0,4.75,35.0,00010:0020,DE-EMPHASIZE,35%  WIN,100%  WIN,1.0,+,WIN,1.663,dis,,,,,0,1,1,1,0,2,2,3,,,,,,,,,,,,,135.65288590011187,None,,,137.66634260001592,None,None,137.66634260001592,None,137.66634260001592,None,137.66634260001592,None,137.66634260001592,None,137.66634260001592,None,137.66634260001592,139.1727150999941,137.66634260001592,None,137.66634260001592,None,,,,,,,,,,2,001,2019_Nov_12_1348,SlotMachTest,3.2.4,60.18614372137362,
2.95,6.75,35.0,00010:0020,DE-EMPHASIZE,35%  LOSE,100%  LOSE,0.0,+,LOSE,-2.3625,ad,,,,,0,1,1,1,0,3,3,6,,,,,,,,,,,,,141.64093629992567,None,,,143.65847390005365,None,None,143.65847390005365,None,143.65847390005365,None,143.65847390005365,None,143.65847390005365,None,143.65847390005365,None,143.65847390005365,145.16103990003467,143.65847390005365,None,143.65847390005365,None,,,,,,,,,,2,001,2019_Nov_12_1348,SlotMachTest,3.2.4,60.18614372137362,
4.25,7.0,50.0,00010:0020,DE-EMPHASIZE,50%  LOSE,100%  LOSE,0.0,+,LOSE,-3.5,ad,,,,,0,1,1,1,0,4,4,8,,,,,,,,,,,,,147.6465056000743,None,,,149.6630251999013,None,None,149.6630251999013,None,149.6630251999013,None,149.6630251999013,None,149.6630251999013,None,149.6630251999013,None,149.6630251999013,151.16599410003982,149.6630251999013,None,149.6630251999013,None,,,,,,,,,,2,001,2019_Nov_12_1348,SlotMachTest,3.2.4,60.18614372137362,
3.25,7.0,50.0,00010:0020,DE-EMPHASIZE,50%  WIN,100%  WIN,1.0,+,WIN,3.5,ad,,,,,0,1,1,1,0,5,5,2,,,,,,,,,,,,,153.65135070006363,None,,,155.66578370006755,None,None,155.66578370006755,None,155.66578370006755,None,155.66578370006755,None,155.66578370006755,None,155.66578370006755,None,155.66578370006755,157.17133080004714,155.66578370006755,None,155.66578370006755,None,,,,,,,,,,2,001,2019_Nov_12_1348,SlotMachTest,3.2.4,60.18614372137362,
3.25,7.0,50.0,00010:0020,DE-EMPHASIZE,50%  WIN,100%  WIN,1.0,+,WIN,3.5,ad,,,,,0,1,1,1,0,6,6,4,,,,,,,,,,,,,159.65606969990768,None,,,161.65303350007161,None,None,161.65303350007161,None,161.65303350007161,None,161.65303350007161,None,161.65303350007161,None,161.65303350007161,None,161.65303350007161,163.15889659989625,161.65303350007161,None,161.65303350007161,None,,,,,,,,,,2,001,2019_Nov_12_1348,SlotMachTest,3.2.4,60.18614372137362,
3.75,5.5,65.0,00010:0020,DE-EMPHASIZE,65%  LOSE,100%  LOSE,0.0,+,LOSE,-3.575,ad,,,,,0,1,1,1,0,7,7,7,,,,,,,,,,,,,165.6446394000668,None,,,167.6625125000719,None,None,167.6625125000719,None,167.6625125000719,None,167.6625125000719,None,167.6625125000719,None,167.6625125000719,None,167.6625125000719,169.1638656000141,167.6625125000719,None,167.6625125000719,None,,,,,,,,,,2,001,2019_Nov_12_1348,SlotMachTest,3.2.4,60.18614372137362,
2.5,6.75,35.0,00010:0020,DE-EMPHASIZE,35%  WIN,100%  WIN,1.0,+,WIN,2.3625,dis,,,,,0,1,1,1,0,8,8,0,,,,,,,,,,,,,171.64974300004542,None,,,173.66436939989217,None,None,173.66436939989217,None,173.66436939989217,None,173.66436939989217,None,173.66436939989217,None,173.66436939989217,None,173.66436939989217,175.16913289995864,173.66436939989217,None,173.66436939989217,None,,,,,,,,,,2,001,2019_Nov_12_1348,SlotMachTest,3.2.4,60.18614372137362,
3.75,5.5,65.0,00010:0020,DE-EMPHASIZE,65%  WIN,100%  WIN,1.0,+,WIN,3.575,dis,,,,,0,1,1,1,0,9,9,1,,,,,,,,,,,,,177.65437330002896,None,,,179.670429199934,None,None,179.670429199934,None,179.670429199934,None,179.670429199934,None,179.670429199934,None,179.670429199934,None,179.670429199934,181.1744280999992,179.670429199934,None,179.670429199934,None,,,,,,,,,,2,001,2019_Nov_12_1348,SlotMachTest,3.2.4,60.18614372137362,
2.0,4.25,65.0,00010:0020,DE-EMPHASIZE,65%  WIN,100%  WIN,1.0,+,,,,,,,,0,1,1,1,,,,,,,,,,,,,,,,,,,,,,,,,,,,,,,,,,,,,,,,,,,,,,,,,2,001,2019_Nov_12_1348,SlotMachTest,3.2.4,60.18614372137362,
1.5,3.85,50.0,00020:0030,DE-EMPHASIZE,50%  WIN,100%  WIN,1.0,+,WIN,1.925,ad,,,,,0,2,2,2,0,0,0,9,,,,,,,,,,,,,187.64610589994118,None,,,189.6637844000943,None,None,189.6637844000943,None,189.6637844000943,None,189.6637844000943,None,189.6637844000943,None,189.6637844000943,None,189.6637844000943,191.1658898999449,189.6637844000943,None,189.6637844000943,None,,,,,,,185.64469509990886,None,,2,001,2019_Nov_12_1348,SlotMachTest,3.2.4,60.18614372137362,
1.75,4.0,50.0,00020:0030,DE-EMPHASIZE,35%  LOSE,100%  LOSE,0.0,+,LOSE,-2.0,dis,,,,,0,2,2,2,0,1,1,7,,,,,,,,,,,,,193.65122179989703,None,,,195.6714550999459,None,None,195.6714550999459,None,195.6714550999459,None,195.6714550999459,None,195.6714550999459,None,195.6714550999459,None,195.6714550999459,197.17106510000303,195.6714550999459,None,195.6714550999459,None,,,,,,,,,,2,001,2019_Nov_12_1348,SlotMachTest,3.2.4,60.18614372137362,
2.75,5.0,65.0,00020:0030,DE-EMPHASIZE,65%  LOSE,100%  LOSE,0.0,+,LOSE,-3.25,dis,,,,,0,2,2,2,0,2,2,5,,,,,,,,,,,,,199.64233299996704,None,,,201.65807550004683,None,None,201.65807550004683,None,201.65807550004683,None,201.65807550004683,None,201.65807550004683,None,201.65807550004683,None,201.65807550004683,203.15929590002634,201.65807550004683,None,201.65807550004683,None,,,,,,,,,,2,001,2019_Nov_12_1348,SlotMachTest,3.2.4,60.18614372137362,
2.25,6.5,35.0,00020:0030,DE-EMPHASIZE,35%  WIN,100%  WIN,1.0,+,WIN,2.275,ad,,,,,0,2,2,2,0,3,3,3,,,,,,,,,,,,,205.64431539992802,None,,,207.66245119995438,None,None,207.66245119995438,None,207.66245119995438,None,207.66245119995438,None,207.66245119995438,None,207.66245119995438,None,207.66245119995438,209.16396229993552,207.66245119995438,None,207.66245119995438,None,,,,,,,,,,2,001,2019_Nov_12_1348,SlotMachTest,3.2.4,60.18614372137362,
4.75,7.5,65.0,00020:0030,DE-EMPHASIZE,65%  LOSE,100%  LOSE,0.0,+,LOSE,-4.875,dis,,,,,0,2,2,2,0,4,4,6,,,,,,,,,,,,,211.6490692999214,None,,,213.66697919997387,None,None,213.66697919997387,None,213.66697919997387,None,213.66697919997387,None,213.66697919997387,None,213.66697919997387,None,213.66697919997387,215.16858669999056,213.66697919997387,None,213.66697919997387,None,,,,,,,,,,2,001,2019_Nov_12_1348,SlotMachTest,3.2.4,60.18614372137362,
1.25,4.5,35.0,00020:0030,DE-EMPHASIZE,35%  LOSE,100%  LOSE,0.0,+,LOSE,-1.575,dis,,,,,0,2,2,2,0,5,5,4,,,,,,,,,,,,,217.65387120004743,None,,,219.67382659995928,None,None,219.67382659995928,None,219.67382659995928,None,219.67382659995928,None,219.67382659995928,None,219.67382659995928,None,219.67382659995928,221.17349660000764,219.67382659995928,None,219.67382659995928,None,,,,,,,,,,2,001,2019_Nov_12_1348,SlotMachTest,3.2.4,60.18614372137362,
5.5,8.75,65.0,00020:0030,DE-EMPHASIZE,65%  WIN,100%  WIN,1.0,+,WIN,5.6875,ad,,,,,0,2,2,2,0,6,6,0,,,,,,,,,,,,,223.64241160009988,None,,,225.6619376000017,None,None,225.6619376000017,None,225.6619376000017,None,225.6619376000017,None,225.6619376000017,None,225.6619376000017,None,225.6619376000017,227.16202830011025,225.6619376000017,None,225.6619376000017,None,,,,,,,,,,2,001,2019_Nov_12_1348,SlotMachTest,3.2.4,60.18614372137362,
6.0,9.75,35.0,00020:0030,DE-EMPHASIZE,35%  LOSE,100%  LOSE,0.0,+,LOSE,-3.4130000000000003,ad,,,,,0,2,2,2,0,7,7,8,,,,,,,,,,,,,229.64743050001562,None,,,231.66529679996893,None,None,231.66529679996893,None,231.66529679996893,None,231.66529679996893,None,231.66529679996893,None,231.66529679996893,None,231.66529679996893,233.16684080008417,231.66529679996893,None,231.66529679996893,None,,,,,,,,,,2,001,2019_Nov_12_1348,SlotMachTest,3.2.4,60.18614372137362,
3.15,6.75,50.0,00020:0030,DE-EMPHASIZE,35%  WIN,100%  WIN,1.0,+,WIN,3.375,ad,,,,,0,2,2,2,0,8,8,2,,,,,,,,,,,,,235.65219249995425,None,,,237.669306299882,None,None,237.669306299882,None,237.669306299882,None,237.669306299882,None,237.669306299882,None,237.669306299882,None,237.669306299882,239.17241659993306,237.669306299882,None,237.669306299882,None,,,,,,,,,,2,001,2019_Nov_12_1348,SlotMachTest,3.2.4,60.18614372137362,
2.75,5.0,35.0,00020:0030,DE-EMPHASIZE,35%  WIN,100%  WIN,1.0,+,WIN,1.75,dis,,,,,0,2,2,2,0,9,9,1,,,,,,,,,,,,,241.6406694999896,None,,,243.65662060002796,None,None,243.65662060002796,None,243.65662060002796,None,243.65662060002796,None,243.65662060002796,None,243.65662060002796,None,243.65662060002796,245.16015310003422,243.65662060002796,None,243.65662060002796,None,,,,,,,,,,2,001,2019_Nov_12_1348,SlotMachTest,3.2.4,60.18614372137362,
3.75,7.5,35.0,00020:0030,DE-EMPHASIZE,35%  LOSE,100%  LOSE,0.0,+,,,,,,,,0,2,2,2,,,,,,,,,,,,,,,,,,,,,,,,,,,,,,,,,,,,,,,,,,,,,,,,,2,001,2019_Nov_12_1348,SlotMachTest,3.2.4,60.18614372137362,
1.5,3.85,50.0,0030:0040,EMPHASIZE,50%  WIN,100%  WIN,1.0,None,WIN,1.925,ad,,,,,0,3,3,3,0,0,0,6,,,,,,,,,,,,,251.64901429996826,None,,,253.6652683999855,None,None,253.6652683999855,None,253.6652683999855,None,253.6652683999855,None,253.6652683999855,None,253.6652683999855,None,253.6652683999855,255.16839929996058,253.6652683999855,None,253.6652683999855,None,,,,,,,249.64721659990028,None,,2,001,2019_Nov_12_1348,SlotMachTest,3.2.4,60.18614372137362,
4.25,9.0,50.0,0030:0040,EMPHASIZE,50%  WIN,100%  WIN,1.0,None,WIN,3.5,ad,,,,,0,3,3,3,0,1,1,9,,,,,,,,,,,,,257.65386669989675,None,,,259.6693567999173,None,None,259.6693567999173,None,259.6693567999173,None,259.6693567999173,None,259.6693567999173,None,259.6693567999173,None,259.6693567999173,261.1734307000879,259.6693567999173,None,259.6693567999173,None,,,,,,,,,,2,001,2019_Nov_12_1348,SlotMachTest,3.2.4,60.18614372137362,
3.75,6.0,65.0,0030:0040,EMPHASIZE,65%  LOSE,100%  LOSE,0.0,None,LOSE,-3.9,dis,,,,,0,3,3,3,0,2,2,4,,,,,,,,,,,,,263.6420042999089,None,,,265.6599830999039,None,None,265.6599830999039,None,265.6599830999039,None,265.6599830999039,None,265.6599830999039,None,265.6599830999039,None,265.6599830999039,267.1617640000768,265.6599830999039,None,265.6599830999039,None,,,,,,,,,,2,001,2019_Nov_12_1348,SlotMachTest,3.2.4,60.18614372137362,
3.75,5.25,65.0,0030:0040,EMPHASIZE,65%  WIN,100%  WIN,1.0,None,WIN,3.1430000000000002,dis,,,,,0,3,3,3,0,3,3,8,,,,,,,,,,,,,269.6471923000645,None,,,271.6647544000298,None,None,271.6647544000298,None,271.6647544000298,None,271.6647544000298,None,271.6647544000298,None,271.6647544000298,None,271.6647544000298,273.16683849995025,271.6647544000298,None,271.6647544000298,None,,,,,,,,,,2,001,2019_Nov_12_1348,SlotMachTest,3.2.4,60.18614372137362,
1.25,4.75,35.0,0030:0040,EMPHASIZE,35%  WIN,100%  WIN,1.0,None,WIN,1.663,ad,,,,,0,3,3,3,0,4,4,3,,,,,,,,,,,,,275.6521197000984,None,,,277.6681248000823,None,None,277.6681248000823,None,277.6681248000823,None,277.6681248000823,None,277.6681248000823,None,277.6681248000823,None,277.6681248000823,279.171822699951,277.6681248000823,None,277.6681248000823,None,,,,,,,,,,2,001,2019_Nov_12_1348,SlotMachTest,3.2.4,60.18614372137362,
4.25,7.0,50.0,0030:0040,EMPHASIZE,50%  WIN,100%  WIN,1.0,None,WIN,3.5,dis,,,,,0,3,3,3,0,5,5,2,,,,,,,,,,,,,281.6404198000673,None,,,283.6575525000226,None,None,283.6575525000226,None,283.6575525000226,None,283.6575525000226,None,283.6575525000226,None,283.6575525000226,None,283.6575525000226,285.16021510004066,283.6575525000226,None,283.6575525000226,None,,,,,,,,,,2,001,2019_Nov_12_1348,SlotMachTest,3.2.4,60.18614372137362,
2.5,7.25,35.0,0030:0040,EMPHASIZE,35%  WIN,100%  WIN,1.0,None,WIN,2.275,ad,,,,,0,3,3,3,0,6,6,0,,,,,,,,,,,,,287.645400499925,None,,,289.66245019994676,None,None,289.66245019994676,None,289.66245019994676,None,289.66245019994676,None,289.66245019994676,None,289.66245019994676,None,289.66245019994676,291.16499949991703,289.66245019994676,None,289.66245019994676,None,,,,,,,,,,2,001,2019_Nov_12_1348,SlotMachTest,3.2.4,60.18614372137362,
2.95,6.75,35.0,0030:0040,EMPHASIZE,35%  WIN,100%  WIN,1.0,None,WIN,2.363,dis,,,,,0,3,3,3,0,7,7,7,,,,,,,,,,,,,293.6503234000411,None,,,295.6672149000224,None,None,295.6672149000224,None,295.6672149000224,None,295.6672149000224,None,295.6672149000224,None,295.6672149000224,None,295.6672149000224,297.1701404999476,295.6672149000224,None,295.6672149000224,None,,,,,,,,,,2,001,2019_Nov_12_1348,SlotMachTest,3.2.4,60.18614372137362,
6.15,9.75,35.0,0030:0040,EMPHASIZE,35%  LOSE,100%  LOSE,0.0,None,LOSE,-3.4130000000000003,ad,,,,,0,3,3,3,0,8,8,5,,,,,,,,,,,,,299.6554469000548,None,,,301.65714640007354,None,None,301.65714640007354,None,301.65714640007354,None,301.65714640007354,None,301.65714640007354,None,301.65714640007354,None,301.65714640007354,303.15847779996693,301.65714640007354,None,301.65714640007354,None,,,,,,,,,,2,001,2019_Nov_12_1348,SlotMachTest,3.2.4,60.18614372137362,
3.75,5.25,65.0,0030:0040,EMPHASIZE,65%  WIN,100%  WIN,1.0,None,WIN,3.1430000000000002,dis,,,,,0,3,3,3,0,9,9,1,,,,,,,,,,,,,305.64360569999553,None,,,307.6600542999804,None,None,307.6600542999804,None,307.6600542999804,None,307.6600542999804,None,307.6600542999804,None,307.6600542999804,None,307.6600542999804,309.1634863000363,307.6600542999804,None,307.6600542999804,None,,,,,,,,,,2,001,2019_Nov_12_1348,SlotMachTest,3.2.4,60.18614372137362,
None,None,None,0030:0040,EMPHASIZE,None,None,None,None,,,,,,,,0,3,3,3,,,,,,,,,,,,,,,,,,,,,,,,,,,,,,,,,,,,,,,,,,,,,,,,,2,001,2019_Nov_12_1348,SlotMachTest,3.2.4,60.18614372137362,
6.75,8.25,35.0,0040:0050,DE-EMPHASIZE,35%  WIN,100%  WIN,1.0,None,WIN,2.888,dis,,,,,0,4,4,4,0,0,0,9,,,,,,,,,,,,,315.6518679999281,None,,,317.6690477000084,None,None,317.6690477000084,None,317.6690477000084,None,317.6690477000084,None,317.6690477000084,None,317.6690477000084,None,317.6690477000084,319.1716223000549,317.6690477000084,None,317.6690477000084,None,,,,,,,313.6511858999729,None,,2,001,2019_Nov_12_1348,SlotMachTest,3.2.4,60.18614372137362,
2.75,6.75,35.0,0040:0050,DE-EMPHASIZE,35%  LOSE,100%  LOSE,0.0,None,LOSE,-2.363,ad,,,,,0,4,4,4,0,1,1,4,,,,,,,,,,,,,321.64045020006597,None,,,323.6607083999552,None,None,323.6607083999552,None,323.6607083999552,None,323.6607083999552,None,323.6607083999552,None,323.6607083999552,None,323.6607083999552,325.1599997000303,323.6607083999552,None,323.6607083999552,None,,,,,,,,,,2,001,2019_Nov_12_1348,SlotMachTest,3.2.4,60.18614372137362,
1.5,3.5,50.0,0040:0050,DE-EMPHASIZE,50%  LOSE,100%  LOSE,0.0,None,LOSE,-1.75,dis,,,,,0,4,4,4,0,2,2,3,,,,,,,,,,,,,327.64523719996214,None,,,329.69535350007936,None,None,329.69535350007936,None,329.69535350007936,None,329.69535350007936,None,329.69535350007936,None,329.69535350007936,None,329.69535350007936,331.19811689993367,329.69535350007936,None,329.69535350007936,None,,,,,,,,,,2,001,2019_Nov_12_1348,SlotMachTest,3.2.4,60.18614372137362,
4.25,5.5,50.0,0040:0050,DE-EMPHASIZE,50%  LOSE,100%  LOSE,0.0,None,LOSE,-2.75,ad,,,,,0,4,4,4,0,3,3,2,,,,,,,,,,,,,333.65035349992104,None,,,335.67126760003157,None,None,335.67126760003157,None,335.67126760003157,None,335.67126760003157,None,335.67126760003157,None,335.67126760003157,None,335.67126760003157,337.1865377998911,335.67126760003157,None,335.67126760003157,None,,,,,,,,,,2,001,2019_Nov_12_1348,SlotMachTest,3.2.4,60.18614372137362,
3.25,4.5,65.0,0040:0050,DE-EMPHASIZE,65%  LOSE,100%  LOSE,0.0,None,LOSE,-2.925,ad,,,,,0,4,4,4,0,4,4,5,,,,,,,,,,,,,339.6555091000628,None,,,341.65554709988646,None,None,341.65554709988646,None,341.65554709988646,None,341.65554709988646,None,341.65554709988646,None,341.65554709988646,None,341.65554709988646,343.15832969988696,341.65554709988646,None,341.65554709988646,None,,,,,,,,,,2,001,2019_Nov_12_1348,SlotMachTest,3.2.4,60.18614372137362,
3.15,4.75,35.0,0040:0050,DE-EMPHASIZE,35%  WIN,100%  WIN,1.0,None,WIN,1.663,dis,,,,,0,4,4,4,0,5,5,0,,,,,,,,,,,,,345.6436135999393,None,,,347.6603594000917,None,None,347.6603594000917,None,347.6603594000917,None,347.6603594000917,None,347.6603594000917,None,347.6603594000917,None,347.6603594000917,349.16322849993594,347.6603594000917,None,347.6603594000917,None,,,,,,,,,,2,001,2019_Nov_12_1348,SlotMachTest,3.2.4,60.18614372137362,
3.95,6.0,65.0,0040:0050,DE-EMPHASIZE,65%  LOSE,100%  LOSE,0.0,None,LOSE,-3.9,ad,,,,,0,4,4,4,0,6,6,1,,,,,,,,,,,,,351.6486219998915,None,,,353.6679199000355,None,None,353.6679199000355,None,353.6679199000355,None,353.6679199000355,None,353.6679199000355,None,353.6679199000355,None,353.6679199000355,355.1682927000802,353.6679199000355,None,353.6679199000355,None,,,,,,,,,,2,001,2019_Nov_12_1348,SlotMachTest,3.2.4,60.18614372137362,
5.0,6.95,65.0,0040:0050,DE-EMPHASIZE,65%  WIN,100%  WIN,1.0,None,WIN,4.518,dis,,,,,0,4,4,4,0,7,7,7,,,,,,,,,,,,,357.6534245000221,None,,,359.66967179998755,None,None,359.66967179998755,None,359.66967179998755,None,359.66967179998755,None,359.66967179998755,None,359.66967179998755,None,359.66967179998755,361.1731706999708,359.66967179998755,None,359.66967179998755,None,,,,,,,,,,2,001,2019_Nov_12_1348,SlotMachTest,3.2.4,60.18614372137362,
4.75,10.0,50.0,0040:0050,DE-EMPHASIZE,50%  WIN,100%  WIN,1.0,None,WIN,5.0,ad,,,,,0,4,4,4,0,8,8,8,,,,,,,,,,,,,363.64218760002404,None,,,365.65733519988135,None,None,365.65733519988135,None,365.65733519988135,None,365.65733519988135,None,365.65733519988135,None,365.65733519988135,None,365.65733519988135,367.1614747000858,365.65733519988135,None,365.65733519988135,None,,,,,,,,,,2,001,2019_Nov_12_1348,SlotMachTest,3.2.4,60.18614372137362,
5.0,6.0,65.0,0040:0050,DE-EMPHASIZE,65%  WIN,100%  WIN,1.0,None,WIN,3.9,dis,,,,,0,4,4,4,0,9,9,6,,,,,,,,,,,,,369.6469761999324,None,,,371.66282700002193,None,None,371.66282700002193,None,371.66282700002193,None,371.66282700002193,None,371.66282700002193,None,371.66282700002193,None,371.66282700002193,373.1663722998928,371.66282700002193,None,371.66282700002193,None,,,,,,,,,,2,001,2019_Nov_12_1348,SlotMachTest,3.2.4,60.18614372137362,
None,None,None,0040:0050,DE-EMPHASIZE,None,None,None,None,,,,,,,,0,4,4,4,,,,,,,,,,,,,,,,,,,,,,,,,,,,,,,,,,,,,,,,,,,,,,,,,2,001,2019_Nov_12_1348,SlotMachTest,3.2.4,60.18614372137362,
4.5,7.0,50.0,0050:0060,EMPHASIZE,50%  LOSE,100%  LOSE,0.0,None,LOSE,-3.5,ad,,,,,0,5,5,5,0,0,0,2,,,,,,,,,,,,,379.65536920004524,None,,,381.65512680006213,None,None,381.65512680006213,None,381.65512680006213,None,381.65512680006213,None,381.65512680006213,None,381.65512680006213,None,381.65512680006213,383.1582160999533,381.65512680006213,None,381.65512680006213,None,,,,,,,377.65341369993985,None,,2,001,2019_Nov_12_1348,SlotMachTest,3.2.4,60.18614372137362,
3.5,4.75,35.0,0050:0060,EMPHASIZE,35%  LOSE,100%  LOSE,0.0,None,LOSE,-1.663,ad,,,,,0,5,5,5,0,1,1,3,,,,,,,,,,,,,385.643339100061,None,,,387.66147920000367,None,None,387.66147920000367,None,387.66147920000367,None,387.66147920000367,None,387.66147920000367,None,387.66147920000367,None,387.66147920000367,389.1629121999722,387.66147920000367,None,387.66147920000367,None,,,,,,,,,,2,001,2019_Nov_12_1348,SlotMachTest,3.2.4,60.18614372137362,
1.5,3.75,50.0,0050:0060,EMPHASIZE,50%  WIN,100%  WIN,1.0,None,WIN,1.875,ad,,,,,0,5,5,5,0,2,2,1,,,,,,,,,,,,,391.6484068999998,None,,,393.6642662000377,None,None,393.6642662000377,None,393.6642662000377,None,393.6642662000377,None,393.6642662000377,None,393.6642662000377,None,393.6642662000377,395.1685581000056,393.6642662000377,None,393.6642662000377,None,,,,,,,,,,2,001,2019_Nov_12_1348,SlotMachTest,3.2.4,60.18614372137362,
6.0,8.5,65.0,0050:0060,EMPHASIZE,65%  WIN,100%  WIN,1.0,None,WIN,5.525,dis,,,,,0,5,5,5,0,3,3,0,,,,,,,,,,,,,397.65335420006886,None,,,399.6691378999967,None,None,399.6691378999967,None,399.6691378999967,None,399.6691378999967,None,399.6691378999967,None,399.6691378999967,None,399.6691378999967,401.1729739999864,399.6691378999967,None,399.6691378999967,None,,,,,,,,,,2,001,2019_Nov_12_1348,SlotMachTest,3.2.4,60.18614372137362,
2.25,4.5,50.0,0050:0060,EMPHASIZE,50%  LOSE,100%  LOSE,0.0,None,LOSE,-2.25,equal,,,,,0,5,5,5,0,4,4,7,,,,,,,,,,,,,403.6415744998958,None,,,405.6594346999191,None,None,405.6594346999191,None,405.6594346999191,None,405.6594346999191,None,405.6594346999191,None,405.6594346999191,None,405.6594346999191,407.1613139999099,405.6594346999191,None,405.6594346999191,None,,,,,,,,,,2,001,2019_Nov_12_1348,SlotMachTest,3.2.4,60.18614372137362,
2.75,5.0,35.0,0050:0060,EMPHASIZE,35%  LOSE,100%  LOSE,0.0,None,LOSE,-1.75,ad,,,,,0,5,5,5,0,5,5,4,,,,,,,,,,,,,409.64675670000724,None,,,411.6663865998853,None,None,411.6663865998853,None,411.6663865998853,None,411.6663865998853,None,411.6663865998853,None,411.6663865998853,None,411.6663865998853,413.16600929992273,411.6663865998853,None,411.6663865998853,None,,,,,,,,,,2,001,2019_Nov_12_1348,SlotMachTest,3.2.4,60.18614372137362,
6.25,9.5,35.0,0050:0060,EMPHASIZE,35%  WIN,100%  WIN,1.0,None,WIN,3.325,dis,,,,,0,5,5,5,0,6,6,6,,,,,,,,,,,,,415.6514532000292,None,,,417.66831009997986,None,None,417.66831009997986,None,417.66831009997986,None,417.66831009997986,None,417.66831009997986,None,417.66831009997986,None,417.66831009997986,419.17130060005,417.66831009997986,None,417.66831009997986,None,,,,,,,,,,2,001,2019_Nov_12_1348,SlotMachTest,3.2.4,60.18614372137362,
1.25,4.0,50.0,0050:0060,EMPHASIZE,50%  WIN,100%  WIN,1.0,None,WIN,2.0,ad,,,,,0,5,5,5,0,7,7,9,,,,,,,,,,,,,421.65667359996587,None,,,423.65561580006033,None,None,423.65561580006033,None,423.65561580006033,None,423.65561580006033,None,423.65561580006033,None,423.65561580006033,None,423.65561580006033,425.1595910999458,423.65561580006033,None,423.65561580006033,None,,,,,,,,,,2,001,2019_Nov_12_1348,SlotMachTest,3.2.4,60.18614372137362,
4.75,7.5,65.0,0050:0060,EMPHASIZE,65%  WIN,100%  WIN,1.0,None,WIN,4.875,ad,,,,,0,5,5,5,0,8,8,8,,,,,,,,,,,,,427.64485040004365,None,,,429.6612038000021,None,None,429.6612038000021,None,429.6612038000021,None,429.6612038000021,None,429.6612038000021,None,429.6612038000021,None,429.6612038000021,431.16471279994585,429.6612038000021,None,429.6612038000021,None,,,,,,,,,,2,001,2019_Nov_12_1348,SlotMachTest,3.2.4,60.18614372137362,
1.5,4.0,50.0,0050:0060,EMPHASIZE,50%  LOSE,100%  LOSE,0.0,None,LOSE,-2.0,dis,,,,,0,5,5,5,0,9,9,5,,,,,,,,,,,,,433.64994859998114,None,,,435.66703039989807,None,None,435.66703039989807,None,435.66703039989807,None,435.66703039989807,None,435.66703039989807,None,435.66703039989807,None,435.66703039989807,437.16929930006154,435.66703039989807,None,435.66703039989807,None,,,,,,,,,,2,001,2019_Nov_12_1348,SlotMachTest,3.2.4,60.18614372137362,
None,None,None,0050:0060,EMPHASIZE,None,None,None,None,,,,,,,,0,5,5,5,,,,,,,,,,,,,,,,,,,,,,,,,,,,,,,,,,,,,,,,,,,,,,,,,2,001,2019_Nov_12_1348,SlotMachTest,3.2.4,60.18614372137362,
